trial_index,trial_image1_file,trial_image2_file,learning_outer_loop.thisRepN,learning_outer_loop.thisTrialN,learning_outer_loop.thisN,learning_outer_loop.thisIndex,learning_inner_loop.thisRepN,learning_inner_loop.thisTrialN,learning_inner_loop.thisN,learning_inner_loop.thisIndex,learning_estimation_outer_loop.thisRepN,learning_estimation_outer_loop.thisTrialN,learning_estimation_outer_loop.thisN,learning_estimation_outer_loop.thisIndex,learning_estimation_inner_loop.thisRepN,learning_estimation_inner_loop.thisTrialN,learning_estimation_inner_loop.thisN,learning_estimation_inner_loop.thisIndex,reversal_outer_loop.thisRepN,reversal_outer_loop.thisTrialN,reversal_outer_loop.thisN,reversal_outer_loop.thisIndex,reversal_inner_loop.thisRepN,reversal_inner_loop.thisTrialN,reversal_inner_loop.thisN,reversal_inner_loop.thisIndex,reversal_estimation_outer_loop.thisRepN,reversal_estimation_outer_loop.thisTrialN,reversal_estimation_outer_loop.thisN,reversal_estimation_outer_loop.thisIndex,reversal_estimation_inner_loop.thisRepN,reversal_estimation_inner_loop.thisTrialN,reversal_estimation_inner_loop.thisN,reversal_estimation_inner_loop.thisIndex,skipped,total_trial_counter,trial_num,left_right_flip,left_image_file,right_image_file,clicked_stimulus_side,side,clicked_stimulus,version,high_prob_image_file,low_prob_image_file,choice_a,choice_b,pair_type,correct,trial_feedback_random,reward,trial_type,overall_time_after_trial,score,estimation_exp1.png,estimation_exp2.png,estimation_exp3.png,estimation_exp4.png,total_learning_time,total_correct,learning_correct,reversal_correct,total_reversal_time,extra_block,participant,ver,date,expName,psychopyVersion,frameRate,
0,exp1.png,exp2.png,0,0,0,0,0,0,0,0,,,,,,,,,,,,,,,,,,,,,,,,,True,,,,,,,,,,,,,,,,,,,,,,,,,,,,,,,s_097,1,2022_Aug_29_1134,Reversal,3.2.4,60.06482197397301,
1,exp3.png,exp4.png,0,0,0,0,0,1,1,1,,,,,,,,,,,,,,,,,,,,,,,,,False,0,1,True,exp4.png,exp3.png,trial_right_image,-1,exp3.png,1,exp3.png,exp4.png,1,1,non-reversed,correct,0.30812922895043027,1,valid_win,9.159539300017059,1,,,,,,,,,,,s_097,1,2022_Aug_29_1134,Reversal,3.2.4,60.06482197397301,
2,exp1.png,exp2.png,0,0,0,0,0,2,2,2,,,,,,,,,,,,,,,,,,,,,,,,,False,1,2,False,exp1.png,exp2.png,trial_right_image,-1,exp2.png,1,exp1.png,exp2.png,0,4,reversed,incorrect,0.1767951840266253,1,invalid_win,15.874686000170186,2,,,,,,,,,,,s_097,1,2022_Aug_29_1134,Reversal,3.2.4,60.06482197397301,
3,exp3.png,exp4.png,0,0,0,0,0,3,3,3,,,,,,,,,,,,,,,,,,,,,,,,,False,2,3,True,exp4.png,exp3.png,trial_left_image,1,exp4.png,1,exp3.png,exp4.png,0,2,non-reversed,incorrect,0.6321179473131672,0,valid_lose,22.054572300054133,2,,,,,,,,,,,s_097,1,2022_Aug_29_1134,Reversal,3.2.4,60.06482197397301,
4,exp1.png,exp2.png,0,0,0,0,0,4,4,4,,,,,,,,,,,,,,,,,,,,,,,,,False,3,4,True,exp2.png,exp1.png,trial_right_image,-1,exp1.png,1,exp1.png,exp2.png,1,3,reversed,correct,0.7533542315597263,1,valid_win,26.42064410005696,3,,,,,,,,,,,s_097,1,2022_Aug_29_1134,Reversal,3.2.4,60.06482197397301,
5,exp3.png,exp4.png,0,0,0,0,0,5,5,5,,,,,,,,,,,,,,,,,,,,,,,,,False,4,5,True,exp4.png,exp3.png,trial_right_image,-1,exp3.png,1,exp3.png,exp4.png,1,1,non-reversed,correct,0.8951215404795687,1,valid_win,30.96871930011548,4,,,,,,,,,,,s_097,1,2022_Aug_29_1134,Reversal,3.2.4,60.06482197397301,
6,exp1.png,exp2.png,0,0,0,0,0,6,6,6,,,,,,,,,,,,,,,,,,,,,,,,,False,5,6,False,exp1.png,exp2.png,trial_right_image,-1,exp2.png,1,exp1.png,exp2.png,0,4,reversed,incorrect,0.8502732413964758,0,valid_lose,35.467741900123656,4,,,,,,,,,,,s_097,1,2022_Aug_29_1134,Reversal,3.2.4,60.06482197397301,
7,exp3.png,exp4.png,0,0,0,0,0,7,7,7,,,,,,,,,,,,,,,,,,,,,,,,,False,6,7,True,exp4.png,exp3.png,trial_left_image,1,exp4.png,1,exp3.png,exp4.png,0,2,non-reversed,incorrect,0.4558381238132815,0,valid_lose,40.46516040014103,4,,,,,,,,,,,s_097,1,2022_Aug_29_1134,Reversal,3.2.4,60.06482197397301,
8,exp1.png,exp2.png,0,0,0,0,0,8,8,8,,,,,,,,,,,,,,,,,,,,,,,,,False,7,8,False,exp1.png,exp2.png,trial_left_image,1,exp1.png,1,exp1.png,exp2.png,1,3,reversed,correct,0.4560823874232599,1,valid_win,45.53068220010027,5,,,,,,,,,,,s_097,1,2022_Aug_29_1134,Reversal,3.2.4,60.06482197397301,
9,exp3.png,exp4.png,0,0,0,0,0,9,9,9,,,,,,,,,,,,,,,,,,,,,,,,,False,8,9,False,exp3.png,exp4.png,trial_left_image,1,exp3.png,1,exp3.png,exp4.png,1,1,non-reversed,correct,0.36635434266674094,1,valid_win,50.92847470007837,6,,,,,,,,,,,s_097,1,2022_Aug_29_1134,Reversal,3.2.4,60.06482197397301,
10,exp1.png,exp2.png,0,0,0,0,0,10,10,10,,,,,,,,,,,,,,,,,,,,,,,,,False,9,10,False,exp1.png,exp2.png,trial_left_image,1,exp1.png,1,exp1.png,exp2.png,1,3,reversed,correct,0.5330985677054518,1,valid_win,55.876777900150046,7,,,,,,,,,,,s_097,1,2022_Aug_29_1134,Reversal,3.2.4,60.06482197397301,
11,exp3.png,exp4.png,0,0,0,0,0,11,11,11,,,,,,,,,,,,,,,,,,,,,,,,,False,10,11,False,exp3.png,exp4.png,trial_left_image,1,exp3.png,1,exp3.png,exp4.png,1,1,non-reversed,correct,0.11852519682914187,0,invalid_lose,60.625226699979976,7,,,,,,,,,,,s_097,1,2022_Aug_29_1134,Reversal,3.2.4,60.06482197397301,
12,exp1.png,exp2.png,0,0,0,0,0,12,12,12,,,,,,,,,,,,,,,,,,,,,,,,,False,11,12,True,exp2.png,exp1.png,trial_right_image,-1,exp1.png,1,exp1.png,exp2.png,1,3,reversed,correct,0.8293504166864837,1,valid_win,65.29146830015816,8,,,,,,,,,,,s_097,1,2022_Aug_29_1134,Reversal,3.2.4,60.06482197397301,
13,exp3.png,exp4.png,0,0,0,0,0,13,13,13,,,,,,,,,,,,,,,,,,,,,,,,,False,12,13,False,exp3.png,exp4.png,trial_right_image,-1,exp4.png,1,exp3.png,exp4.png,0,2,non-reversed,incorrect,0.3551066679488245,0,valid_lose,70.155263800174,8,,,,,,,,,,,s_097,1,2022_Aug_29_1134,Reversal,3.2.4,60.06482197397301,
14,exp1.png,exp2.png,0,0,0,0,0,14,14,14,,,,,,,,,,,,,,,,,,,,,,,,,False,13,14,True,exp2.png,exp1.png,trial_right_image,-1,exp1.png,1,exp1.png,exp2.png,1,3,reversed,correct,0.593307106226521,1,valid_win,75.13670540018938,9,,,,,,,,,,,s_097,1,2022_Aug_29_1134,Reversal,3.2.4,60.06482197397301,
15,exp3.png,exp4.png,0,0,0,0,0,15,15,15,,,,,,,,,,,,,,,,,,,,,,,,,False,14,15,True,exp4.png,exp3.png,trial_left_image,1,exp4.png,1,exp3.png,exp4.png,0,2,non-reversed,incorrect,0.3752332260146697,0,valid_lose,81.53520170017146,9,,,,,,,,,,,s_097,1,2022_Aug_29_1134,Reversal,3.2.4,60.06482197397301,
16,exp1.png,exp2.png,0,0,0,0,0,16,16,16,,,,,,,,,,,,,,,,,,,,,,,,,False,15,16,False,exp1.png,exp2.png,trial_right_image,-1,exp2.png,1,exp1.png,exp2.png,0,4,reversed,incorrect,0.8203928339667985,0,valid_lose,85.88437740015797,9,,,,,,,,,,,s_097,1,2022_Aug_29_1134,Reversal,3.2.4,60.06482197397301,
17,exp3.png,exp4.png,0,0,0,0,0,17,17,17,,,,,,,,,,,,,,,,,,,,,,,,,False,16,17,True,exp4.png,exp3.png,trial_right_image,-1,exp3.png,1,exp3.png,exp4.png,1,1,non-reversed,correct,0.5391854361009558,1,valid_win,90.49804099998437,10,,,,,,,,,,,s_097,1,2022_Aug_29_1134,Reversal,3.2.4,60.06482197397301,
18,exp1.png,exp2.png,0,0,0,0,0,18,18,18,,,,,,,,,,,,,,,,,,,,,,,,,False,17,18,False,exp1.png,exp2.png,trial_left_image,1,exp1.png,1,exp1.png,exp2.png,1,3,reversed,correct,0.3928852377824502,1,valid_win,96.2641736001242,11,,,,,,,,,,,s_097,1,2022_Aug_29_1134,Reversal,3.2.4,60.06482197397301,
19,exp3.png,exp4.png,0,0,0,0,0,19,19,19,,,,,,,,,,,,,,,,,,,,,,,,,False,18,19,False,exp3.png,exp4.png,trial_right_image,-1,exp4.png,1,exp3.png,exp4.png,0,2,non-reversed,incorrect,0.5776754132320443,0,valid_lose,101.27800340019166,11,,,,,,,,,,,s_097,1,2022_Aug_29_1134,Reversal,3.2.4,60.06482197397301,
20,exp1.png,exp2.png,0,0,0,0,0,20,20,20,,,,,,,,,,,,,,,,,,,,,,,,,False,19,20,True,exp2.png,exp1.png,trial_right_image,-1,exp1.png,1,exp1.png,exp2.png,1,3,reversed,correct,0.6162213032252838,1,valid_win,104.99389840010554,12,,,,,,,,,,,s_097,1,2022_Aug_29_1134,Reversal,3.2.4,60.06482197397301,
,,,0,0,0,0,,,,,0,0,0,0,,,,,,,,,,,,,,,,,,,,,,,,,,,,,,,,,,,,,,,,,,57,37,50.0,44,,,,,,,s_097,1,2022_Aug_29_1134,Reversal,3.2.4,60.06482197397301,
0,exp1.png,exp2.png,1,0,1,0,0,0,0,0,,,,,,,,,,,,,,,,,,,,,,,,,True,,,,,,,,,,,,,,,,,,,,,,,,,,,,,,,s_097,1,2022_Aug_29_1134,Reversal,3.2.4,60.06482197397301,
1,exp3.png,exp4.png,1,0,1,0,0,1,1,1,,,,,,,,,,,,,,,,,,,,,,,,,False,20,21,True,exp4.png,exp3.png,trial_right_image,-1,exp3.png,1,exp3.png,exp4.png,1,1,non-reversed,correct,0.634421363525493,1,valid_win,126.63642500014976,13,,,,,,,,,,,s_097,1,2022_Aug_29_1134,Reversal,3.2.4,60.06482197397301,
2,exp1.png,exp2.png,1,0,1,0,0,2,2,2,,,,,,,,,,,,,,,,,,,,,,,,,False,21,22,True,exp2.png,exp1.png,trial_right_image,-1,exp1.png,1,exp1.png,exp2.png,1,3,reversed,correct,0.07074134772501672,0,invalid_lose,131.1187182001304,13,,,,,,,,,,,s_097,1,2022_Aug_29_1134,Reversal,3.2.4,60.06482197397301,
3,exp3.png,exp4.png,1,0,1,0,0,3,3,3,,,,,,,,,,,,,,,,,,,,,,,,,False,22,23,False,exp3.png,exp4.png,trial_right_image,-1,exp4.png,1,exp3.png,exp4.png,0,2,non-reversed,incorrect,0.03237721696872675,1,invalid_win,135.76676690019667,14,,,,,,,,,,,s_097,1,2022_Aug_29_1134,Reversal,3.2.4,60.06482197397301,
4,exp1.png,exp2.png,1,0,1,0,0,4,4,4,,,,,,,,,,,,,,,,,,,,,,,,,False,23,24,False,exp1.png,exp2.png,trial_left_image,1,exp1.png,1,exp1.png,exp2.png,1,3,reversed,correct,0.4856097645404731,1,valid_win,140.41626140009612,15,,,,,,,,,,,s_097,1,2022_Aug_29_1134,Reversal,3.2.4,60.06482197397301,
5,exp3.png,exp4.png,1,0,1,0,0,5,5,5,,,,,,,,,,,,,,,,,,,,,,,,,False,24,25,True,exp4.png,exp3.png,trial_left_image,1,exp4.png,1,exp3.png,exp4.png,0,2,non-reversed,incorrect,0.8076063793964636,0,valid_lose,146.11295260000043,15,,,,,,,,,,,s_097,1,2022_Aug_29_1134,Reversal,3.2.4,60.06482197397301,
6,exp1.png,exp2.png,1,0,1,0,0,6,6,6,,,,,,,,,,,,,,,,,,,,,,,,,False,25,26,True,exp2.png,exp1.png,trial_right_image,-1,exp1.png,1,exp1.png,exp2.png,1,3,reversed,correct,0.6860733105960919,1,valid_win,150.91151350014843,16,,,,,,,,,,,s_097,1,2022_Aug_29_1134,Reversal,3.2.4,60.06482197397301,
7,exp3.png,exp4.png,1,0,1,0,0,7,7,7,,,,,,,,,,,,,,,,,,,,,,,,,False,26,27,False,exp3.png,exp4.png,trial_right_image,-1,exp4.png,1,exp3.png,exp4.png,0,2,non-reversed,incorrect,0.6673483139712562,0,valid_lose,156.41011420008726,16,,,,,,,,,,,s_097,1,2022_Aug_29_1134,Reversal,3.2.4,60.06482197397301,
8,exp1.png,exp2.png,1,0,1,0,0,8,8,8,,,,,,,,,,,,,,,,,,,,,,,,,False,27,28,False,exp1.png,exp2.png,trial_left_image,1,exp1.png,1,exp1.png,exp2.png,1,3,reversed,correct,0.5523626800794955,1,valid_win,161.6081391000189,17,,,,,,,,,,,s_097,1,2022_Aug_29_1134,Reversal,3.2.4,60.06482197397301,
9,exp3.png,exp4.png,1,0,1,0,0,9,9,9,,,,,,,,,,,,,,,,,,,,,,,,,False,28,29,False,exp3.png,exp4.png,trial_left_image,1,exp3.png,1,exp3.png,exp4.png,1,1,non-reversed,correct,0.9729717010162964,1,valid_win,167.09043740015477,18,,,,,,,,,,,s_097,1,2022_Aug_29_1134,Reversal,3.2.4,60.06482197397301,
10,exp1.png,exp2.png,1,0,1,0,0,10,10,10,,,,,,,,,,,,,,,,,,,,,,,,,False,29,30,True,exp2.png,exp1.png,trial_right_image,-1,exp1.png,1,exp1.png,exp2.png,1,3,reversed,correct,0.7622813476997184,1,valid_win,171.82163470005617,19,,,,,,,,,,,s_097,1,2022_Aug_29_1134,Reversal,3.2.4,60.06482197397301,
11,exp3.png,exp4.png,1,0,1,0,0,11,11,11,,,,,,,,,,,,,,,,,,,,,,,,,False,30,31,False,exp3.png,exp4.png,trial_right_image,-1,exp4.png,1,exp3.png,exp4.png,0,2,non-reversed,incorrect,0.9926927625780867,0,valid_lose,177.5698083001189,19,,,,,,,,,,,s_097,1,2022_Aug_29_1134,Reversal,3.2.4,60.06482197397301,
12,exp1.png,exp2.png,1,0,1,0,0,12,12,12,,,,,,,,,,,,,,,,,,,,,,,,,False,31,32,True,exp2.png,exp1.png,trial_right_image,-1,exp1.png,1,exp1.png,exp2.png,1,3,reversed,correct,0.20768610026481193,0,invalid_lose,182.21748740016483,19,,,,,,,,,,,s_097,1,2022_Aug_29_1134,Reversal,3.2.4,60.06482197397301,
13,exp3.png,exp4.png,1,0,1,0,0,13,13,13,,,,,,,,,,,,,,,,,,,,,,,,,False,32,33,True,exp4.png,exp3.png,trial_left_image,1,exp4.png,1,exp3.png,exp4.png,0,2,non-reversed,incorrect,0.2867012015009003,0,valid_lose,186.3325521000661,19,,,,,,,,,,,s_097,1,2022_Aug_29_1134,Reversal,3.2.4,60.06482197397301,
14,exp1.png,exp2.png,1,0,1,0,0,14,14,14,,,,,,,,,,,,,,,,,,,,,,,,,False,33,34,False,exp1.png,exp2.png,trial_right_image,-1,exp2.png,1,exp1.png,exp2.png,0,4,reversed,incorrect,0.8159366935389206,0,valid_lose,190.84820030000992,19,,,,,,,,,,,s_097,1,2022_Aug_29_1134,Reversal,3.2.4,60.06482197397301,
15,exp3.png,exp4.png,1,0,1,0,0,15,15,15,,,,,,,,,,,,,,,,,,,,,,,,,False,34,35,True,exp4.png,exp3.png,trial_right_image,-1,exp3.png,1,exp3.png,exp4.png,1,1,non-reversed,correct,0.4286425367673953,1,valid_win,195.06287330016494,20,,,,,,,,,,,s_097,1,2022_Aug_29_1134,Reversal,3.2.4,60.06482197397301,
16,exp1.png,exp2.png,1,0,1,0,0,16,16,16,,,,,,,,,,,,,,,,,,,,,,,,,False,35,36,True,exp2.png,exp1.png,trial_right_image,-1,exp1.png,1,exp1.png,exp2.png,1,3,reversed,correct,0.4372464816132312,1,valid_win,199.32848170003854,21,,,,,,,,,,,s_097,1,2022_Aug_29_1134,Reversal,3.2.4,60.06482197397301,
17,exp3.png,exp4.png,1,0,1,0,0,17,17,17,,,,,,,,,,,,,,,,,,,,,,,,,False,36,37,False,exp3.png,exp4.png,trial_left_image,1,exp3.png,1,exp3.png,exp4.png,1,1,non-reversed,correct,0.6901592352541315,1,valid_win,204.35989119997248,22,,,,,,,,,,,s_097,1,2022_Aug_29_1134,Reversal,3.2.4,60.06482197397301,
18,exp1.png,exp2.png,1,0,1,0,0,18,18,18,,,,,,,,,,,,,,,,,,,,,,,,,False,37,38,False,exp1.png,exp2.png,trial_left_image,1,exp1.png,1,exp1.png,exp2.png,1,3,reversed,correct,0.924783510825094,1,valid_win,209.24236740008928,23,,,,,,,,,,,s_097,1,2022_Aug_29_1134,Reversal,3.2.4,60.06482197397301,
19,exp3.png,exp4.png,1,0,1,0,0,19,19,19,,,,,,,,,,,,,,,,,,,,,,,,,False,38,39,True,exp4.png,exp3.png,trial_right_image,-1,exp3.png,1,exp3.png,exp4.png,1,1,non-reversed,correct,0.40704519842928966,1,valid_win,213.69444660004228,24,,,,,,,,,,,s_097,1,2022_Aug_29_1134,Reversal,3.2.4,60.06482197397301,
20,exp1.png,exp2.png,1,0,1,0,0,20,20,20,,,,,,,,,,,,,,,,,,,,,,,,,False,39,40,False,exp1.png,exp2.png,trial_left_image,1,exp1.png,1,exp1.png,exp2.png,1,3,reversed,correct,0.48182226527197747,1,valid_win,218.78929690015502,25,,,,,,,,,,,s_097,1,2022_Aug_29_1134,Reversal,3.2.4,60.06482197397301,
,,,1,0,1,0,,,,,0,0,0,0,,,,,,,,,,,,,,,,,,,,,,,,,,,,,,,,,,,,,,,,,,63,44,54,47,,,,,,,s_097,1,2022_Aug_29_1134,Reversal,3.2.4,60.06482197397301,
0,exp1.png,exp2.png,2,0,2,0,0,0,0,0,,,,,,,,,,,,,,,,,,,,,,,,,True,,,,,,,,,,,,,,,,,,,,,,,,,,,,,,,s_097,1,2022_Aug_29_1134,Reversal,3.2.4,60.06482197397301,
1,exp3.png,exp4.png,2,0,2,0,0,1,1,1,,,,,,,,,,,,,,,,,,,,,,,,,False,40,41,True,exp4.png,exp3.png,trial_right_image,-1,exp3.png,1,exp3.png,exp4.png,1,1,non-reversed,correct,0.0923574604354862,0,invalid_lose,233.0501572000794,25,,,,,,,,,,,s_097,1,2022_Aug_29_1134,Reversal,3.2.4,60.06482197397301,
2,exp1.png,exp2.png,2,0,2,0,0,2,2,2,,,,,,,,,,,,,,,,,,,,,,,,,False,41,42,True,exp2.png,exp1.png,trial_left_image,1,exp2.png,1,exp1.png,exp2.png,0,4,reversed,incorrect,0.3551449110232042,0,valid_lose,237.9323232001625,25,,,,,,,,,,,s_097,1,2022_Aug_29_1134,Reversal,3.2.4,60.06482197397301,
3,exp3.png,exp4.png,2,0,2,0,0,3,3,3,,,,,,,,,,,,,,,,,,,,,,,,,False,42,43,True,exp4.png,exp3.png,trial_left_image,1,exp4.png,1,exp3.png,exp4.png,0,2,non-reversed,incorrect,0.3739458779352193,0,valid_lose,243.5467141000554,25,,,,,,,,,,,s_097,1,2022_Aug_29_1134,Reversal,3.2.4,60.06482197397301,
4,exp1.png,exp2.png,2,0,2,0,0,4,4,4,,,,,,,,,,,,,,,,,,,,,,,,,False,43,44,False,exp1.png,exp2.png,trial_left_image,1,exp1.png,1,exp1.png,exp2.png,1,3,reversed,correct,0.9219177215626093,1,valid_win,248.545128100086,26,,,,,,,,,,,s_097,1,2022_Aug_29_1134,Reversal,3.2.4,60.06482197397301,
5,exp3.png,exp4.png,2,0,2,0,0,5,5,5,,,,,,,,,,,,,,,,,,,,,,,,,False,44,45,False,exp3.png,exp4.png,trial_right_image,-1,exp4.png,1,exp3.png,exp4.png,0,2,non-reversed,incorrect,0.15798963147423406,1,invalid_win,253.3268503001891,27,,,,,,,,,,,s_097,1,2022_Aug_29_1134,Reversal,3.2.4,60.06482197397301,
6,exp1.png,exp2.png,2,0,2,0,0,6,6,6,,,,,,,,,,,,,,,,,,,,,,,,,False,45,46,False,exp1.png,exp2.png,trial_right_image,-1,exp2.png,1,exp1.png,exp2.png,0,4,reversed,incorrect,0.9169061160325476,0,valid_lose,257.7255646002013,27,,,,,,,,,,,s_097,1,2022_Aug_29_1134,Reversal,3.2.4,60.06482197397301,
7,exp3.png,exp4.png,2,0,2,0,0,7,7,7,,,,,,,,,,,,,,,,,,,,,,,,,False,46,47,True,exp4.png,exp3.png,trial_right_image,-1,exp3.png,1,exp3.png,exp4.png,1,1,non-reversed,correct,0.5584785435662325,1,valid_win,262.37379760015756,28,,,,,,,,,,,s_097,1,2022_Aug_29_1134,Reversal,3.2.4,60.06482197397301,
8,exp1.png,exp2.png,2,0,2,0,0,8,8,8,,,,,,,,,,,,,,,,,,,,,,,,,False,47,48,False,exp1.png,exp2.png,trial_left_image,1,exp1.png,1,exp1.png,exp2.png,1,3,reversed,correct,0.42522433186040254,1,valid_win,266.88903350010514,29,,,,,,,,,,,s_097,1,2022_Aug_29_1134,Reversal,3.2.4,60.06482197397301,
9,exp3.png,exp4.png,2,0,2,0,0,9,9,9,,,,,,,,,,,,,,,,,,,,,,,,,False,48,49,False,exp3.png,exp4.png,trial_left_image,1,exp3.png,1,exp3.png,exp4.png,1,1,non-reversed,correct,0.16819342031480722,0,invalid_lose,271.43753170012496,29,,,,,,,,,,,s_097,1,2022_Aug_29_1134,Reversal,3.2.4,60.06482197397301,
10,exp1.png,exp2.png,2,0,2,0,0,10,10,10,,,,,,,,,,,,,,,,,,,,,,,,,False,49,50,False,exp1.png,exp2.png,trial_left_image,1,exp1.png,1,exp1.png,exp2.png,1,3,reversed,correct,0.07181116711261393,0,invalid_lose,276.2368446001783,29,,,,,,,,,,,s_097,1,2022_Aug_29_1134,Reversal,3.2.4,60.06482197397301,
11,exp3.png,exp4.png,2,0,2,0,0,11,11,11,,,,,,,,,,,,,,,,,,,,,,,,,False,50,51,False,exp3.png,exp4.png,trial_right_image,-1,exp4.png,1,exp3.png,exp4.png,0,2,non-reversed,incorrect,0.0008907893071038453,1,invalid_win,280.26777540007606,30,,,,,,,,,,,s_097,1,2022_Aug_29_1134,Reversal,3.2.4,60.06482197397301,
12,exp1.png,exp2.png,2,0,2,0,0,12,12,12,,,,,,,,,,,,,,,,,,,,,,,,,False,51,52,True,exp2.png,exp1.png,trial_right_image,-1,exp1.png,1,exp1.png,exp2.png,1,3,reversed,correct,0.03546905410423684,0,invalid_lose,285.04982360010035,30,,,,,,,,,,,s_097,1,2022_Aug_29_1134,Reversal,3.2.4,60.06482197397301,
13,exp3.png,exp4.png,2,0,2,0,0,13,13,13,,,,,,,,,,,,,,,,,,,,,,,,,False,52,53,True,exp4.png,exp3.png,trial_right_image,-1,exp3.png,1,exp3.png,exp4.png,1,1,non-reversed,correct,0.8588272824854418,1,valid_win,288.98211490013637,31,,,,,,,,,,,s_097,1,2022_Aug_29_1134,Reversal,3.2.4,60.06482197397301,
14,exp1.png,exp2.png,2,0,2,0,0,14,14,14,,,,,,,,,,,,,,,,,,,,,,,,,False,53,54,False,exp1.png,exp2.png,trial_right_image,-1,exp2.png,1,exp1.png,exp2.png,0,4,reversed,incorrect,0.8314695431720247,0,valid_lose,293.0972325000912,31,,,,,,,,,,,s_097,1,2022_Aug_29_1134,Reversal,3.2.4,60.06482197397301,
15,exp3.png,exp4.png,2,0,2,0,0,15,15,15,,,,,,,,,,,,,,,,,,,,,,,,,False,54,55,True,exp4.png,exp3.png,trial_right_image,-1,exp3.png,1,exp3.png,exp4.png,1,1,non-reversed,correct,0.6591153769042438,1,valid_win,297.429044400109,32,,,,,,,,,,,s_097,1,2022_Aug_29_1134,Reversal,3.2.4,60.06482197397301,
16,exp1.png,exp2.png,2,0,2,0,0,16,16,16,,,,,,,,,,,,,,,,,,,,,,,,,False,55,56,False,exp1.png,exp2.png,trial_left_image,1,exp1.png,1,exp1.png,exp2.png,1,3,reversed,correct,0.734095227694824,1,valid_win,301.82673940015957,33,,,,,,,,,,,s_097,1,2022_Aug_29_1134,Reversal,3.2.4,60.06482197397301,
17,exp3.png,exp4.png,2,0,2,0,0,17,17,17,,,,,,,,,,,,,,,,,,,,,,,,,False,56,57,True,exp4.png,exp3.png,trial_right_image,-1,exp3.png,1,exp3.png,exp4.png,1,1,non-reversed,correct,0.7179448783464378,1,valid_win,306.3088023001328,34,,,,,,,,,,,s_097,1,2022_Aug_29_1134,Reversal,3.2.4,60.06482197397301,
18,exp1.png,exp2.png,2,0,2,0,0,18,18,18,,,,,,,,,,,,,,,,,,,,,,,,,False,57,58,True,exp2.png,exp1.png,trial_right_image,-1,exp1.png,1,exp1.png,exp2.png,1,3,reversed,correct,0.32127984651237673,1,valid_win,310.54170970013365,35,,,,,,,,,,,s_097,1,2022_Aug_29_1134,Reversal,3.2.4,60.06482197397301,
19,exp3.png,exp4.png,2,0,2,0,0,19,19,19,,,,,,,,,,,,,,,,,,,,,,,,,False,58,59,True,exp4.png,exp3.png,trial_right_image,-1,exp3.png,1,exp3.png,exp4.png,1,1,non-reversed,correct,0.24616839002437785,0,invalid_lose,314.7062807001639,35,,,,,,,,,,,s_097,1,2022_Aug_29_1134,Reversal,3.2.4,60.06482197397301,
20,exp1.png,exp2.png,2,0,2,0,0,20,20,20,,,,,,,,,,,,,,,,,,,,,,,,,False,59,60,False,exp1.png,exp2.png,trial_left_image,1,exp1.png,1,exp1.png,exp2.png,1,3,reversed,correct,0.2677559151747131,1,valid_win,318.4080787000712,36,,,,,,,,,,,s_097,1,2022_Aug_29_1134,Reversal,3.2.4,60.06482197397301,
,,,2,0,2,0,,,,,0,0,0,0,,,,,,,,,,,,,,,,,,,,,,,,,,,,,,,,,,,,,,,,,,59,50.0,50.0,47,,,,,,,s_097,1,2022_Aug_29_1134,Reversal,3.2.4,60.06482197397301,
0,exp1.png,exp2.png,,,,,,,,,,,,,,,,,0,0,0,0,0,0,0,0,,,,,,,,,True,,,,,,,,,,,,,,,,,,,,,,,,,,,,,,,s_097,1,2022_Aug_29_1134,Reversal,3.2.4,60.06482197397301,
1,exp3.png,exp4.png,,,,,,,,,,,,,,,,,0,0,0,0,0,1,1,1,,,,,,,,,False,0,61,True,exp4.png,exp3.png,trial_right_image,-1,exp3.png,1,exp3.png,exp4.png,1,1,non-reversed,correct,0.03411642443374718,0,invalid_lose,329.1008914001286,36,,,,,327.09328140015714,,,,,,s_097,1,2022_Aug_29_1134,Reversal,3.2.4,60.06482197397301,
2,exp1.png,exp2.png,,,,,,,,,,,,,,,,,0,0,0,0,0,2,2,2,,,,,,,,,False,1,62,False,exp1.png,exp2.png,trial_left_image,1,exp1.png,1,exp2.png,exp1.png,1,3,reversed,incorrect,0.3145284221791306,0,valid_lose,333.70040130009875,36,,,,,,,,,,,s_097,1,2022_Aug_29_1134,Reversal,3.2.4,60.06482197397301,
3,exp3.png,exp4.png,,,,,,,,,,,,,,,,,0,0,0,0,0,3,3,3,,,,,,,,,False,2,63,True,exp4.png,exp3.png,trial_right_image,-1,exp3.png,1,exp3.png,exp4.png,1,1,non-reversed,correct,0.1112378263340148,0,invalid_lose,338.4645647001453,36,,,,,,,,,,,s_097,1,2022_Aug_29_1134,Reversal,3.2.4,60.06482197397301,
4,exp1.png,exp2.png,,,,,,,,,,,,,,,,,0,0,0,0,0,4,4,4,,,,,,,,,False,3,64,True,exp2.png,exp1.png,trial_right_image,-1,exp1.png,1,exp2.png,exp1.png,1,3,reversed,incorrect,0.40476859550301814,0,valid_lose,342.5301539001521,36,,,,,,,,,,,s_097,1,2022_Aug_29_1134,Reversal,3.2.4,60.06482197397301,
5,exp3.png,exp4.png,,,,,,,,,,,,,,,,,0,0,0,0,0,5,5,5,,,,,,,,,False,4,65,False,exp3.png,exp4.png,trial_left_image,1,exp3.png,1,exp3.png,exp4.png,1,1,non-reversed,correct,0.19200717226837716,0,invalid_lose,346.4951977999881,36,,,,,,,,,,,s_097,1,2022_Aug_29_1134,Reversal,3.2.4,60.06482197397301,
6,exp1.png,exp2.png,,,,,,,,,,,,,,,,,0,0,0,0,0,6,6,6,,,,,,,,,False,5,66,False,exp1.png,exp2.png,trial_left_image,1,exp1.png,1,exp2.png,exp1.png,1,3,reversed,incorrect,0.05375140816704993,1,invalid_win,350.3781334001105,37,,,,,,,,,,,s_097,1,2022_Aug_29_1134,Reversal,3.2.4,60.06482197397301,
7,exp3.png,exp4.png,,,,,,,,,,,,,,,,,0,0,0,0,0,7,7,7,,,,,,,,,False,6,67,True,exp4.png,exp3.png,trial_right_image,-1,exp3.png,1,exp3.png,exp4.png,1,1,non-reversed,correct,0.5571085464961584,1,valid_win,354.4431271001231,38,,,,,,,,,,,s_097,1,2022_Aug_29_1134,Reversal,3.2.4,60.06482197397301,
8,exp1.png,exp2.png,,,,,,,,,,,,,,,,,0,0,0,0,0,8,8,8,,,,,,,,,False,7,68,True,exp2.png,exp1.png,trial_right_image,-1,exp1.png,1,exp2.png,exp1.png,1,3,reversed,incorrect,0.38459688730613417,0,valid_lose,358.44127090019174,38,,,,,,,,,,,s_097,1,2022_Aug_29_1134,Reversal,3.2.4,60.06482197397301,
9,exp3.png,exp4.png,,,,,,,,,,,,,,,,,0,0,0,0,0,9,9,9,,,,,,,,,False,8,69,True,exp4.png,exp3.png,trial_right_image,-1,exp3.png,1,exp3.png,exp4.png,1,1,non-reversed,correct,0.7144303674758732,1,valid_win,362.5396114999894,39,,,,,,,,,,,s_097,1,2022_Aug_29_1134,Reversal,3.2.4,60.06482197397301,
10,exp1.png,exp2.png,,,,,,,,,,,,,,,,,0,0,0,0,0,10,10,10,,,,,,,,,False,9,70,False,exp1.png,exp2.png,trial_left_image,1,exp1.png,1,exp2.png,exp1.png,1,3,reversed,incorrect,0.23461991598957121,1,invalid_win,366.80515830009244,40,,,,,,,,,,,s_097,1,2022_Aug_29_1134,Reversal,3.2.4,60.06482197397301,
11,exp3.png,exp4.png,,,,,,,,,,,,,,,,,0,0,0,0,0,11,11,11,,,,,,,,,False,10,71,True,exp4.png,exp3.png,trial_right_image,-1,exp3.png,1,exp3.png,exp4.png,1,1,non-reversed,correct,0.47919369143507273,1,valid_win,371.5207320000045,41,,,,,,,,,,,s_097,1,2022_Aug_29_1134,Reversal,3.2.4,60.06482197397301,
12,exp1.png,exp2.png,,,,,,,,,,,,,,,,,0,0,0,0,0,12,12,12,,,,,,,,,False,11,72,False,exp1.png,exp2.png,trial_left_image,1,exp1.png,1,exp2.png,exp1.png,1,3,reversed,incorrect,0.5368210190985553,0,valid_lose,375.7353509000968,41,,,,,,,,,,,s_097,1,2022_Aug_29_1134,Reversal,3.2.4,60.06482197397301,
13,exp3.png,exp4.png,,,,,,,,,,,,,,,,,0,0,0,0,0,13,13,13,,,,,,,,,False,12,73,False,exp3.png,exp4.png,trial_left_image,1,exp3.png,1,exp3.png,exp4.png,1,1,non-reversed,correct,0.03730241718847227,0,invalid_lose,379.0183315000031,41,,,,,,,,,,,s_097,1,2022_Aug_29_1134,Reversal,3.2.4,60.06482197397301,
14,exp1.png,exp2.png,,,,,,,,,,,,,,,,,0,0,0,0,0,14,14,14,,,,,,,,,False,13,74,False,exp1.png,exp2.png,trial_right_image,-1,exp2.png,1,exp2.png,exp1.png,0,4,reversed,correct,0.9078193181162423,1,valid_win,382.93322890019044,42,,,,,,,,,,,s_097,1,2022_Aug_29_1134,Reversal,3.2.4,60.06482197397301,
15,exp3.png,exp4.png,,,,,,,,,,,,,,,,,0,0,0,0,0,15,15,15,,,,,,,,,False,14,75,True,exp4.png,exp3.png,trial_right_image,-1,exp3.png,1,exp3.png,exp4.png,1,1,non-reversed,correct,0.9292849677472977,1,valid_win,386.8652256000787,43,,,,,,,,,,,s_097,1,2022_Aug_29_1134,Reversal,3.2.4,60.06482197397301,
16,exp1.png,exp2.png,,,,,,,,,,,,,,,,,0,0,0,0,0,16,16,16,,,,,,,,,False,15,76,False,exp1.png,exp2.png,trial_left_image,1,exp1.png,1,exp2.png,exp1.png,1,3,reversed,incorrect,0.7832007879793051,0,valid_lose,391.2631226000376,43,,,,,,,,,,,s_097,1,2022_Aug_29_1134,Reversal,3.2.4,60.06482197397301,
17,exp3.png,exp4.png,,,,,,,,,,,,,,,,,0,0,0,0,0,17,17,17,,,,,,,,,False,16,77,False,exp3.png,exp4.png,trial_right_image,-1,exp4.png,1,exp3.png,exp4.png,0,2,non-reversed,incorrect,0.9751328762283598,0,valid_lose,395.22832690016367,43,,,,,,,,,,,s_097,1,2022_Aug_29_1134,Reversal,3.2.4,60.06482197397301,
18,exp1.png,exp2.png,,,,,,,,,,,,,,,,,0,0,0,0,0,18,18,18,,,,,,,,,False,17,78,True,exp2.png,exp1.png,trial_right_image,-1,exp1.png,1,exp2.png,exp1.png,1,3,reversed,incorrect,0.3719551785216598,0,valid_lose,399.2941320000682,43,,,,,,,,,,,s_097,1,2022_Aug_29_1134,Reversal,3.2.4,60.06482197397301,
19,exp3.png,exp4.png,,,,,,,,,,,,,,,,,0,0,0,0,0,19,19,19,,,,,,,,,False,18,79,True,exp4.png,exp3.png,trial_right_image,-1,exp3.png,1,exp3.png,exp4.png,1,1,non-reversed,correct,0.5486253730778199,1,valid_win,403.0763887001667,44,,,,,,,,,,,s_097,1,2022_Aug_29_1134,Reversal,3.2.4,60.06482197397301,
20,exp1.png,exp2.png,,,,,,,,,,,,,,,,,0,0,0,0,0,20,20,20,,,,,,,,,False,19,80,False,exp1.png,exp2.png,trial_right_image,-1,exp2.png,1,exp2.png,exp1.png,0,4,reversed,correct,0.754361964821077,1,valid_win,407.15824860008433,45,,,,,,,,,,,s_097,1,2022_Aug_29_1134,Reversal,3.2.4,60.06482197397301,
,,,,,,,,,,,,,,,,,,,0,0,0,0,,,,,0,0,0,0,,,,,,,,,,,,,,,,,,,,,,,,,,50.0,50.0,50.0,50.0,,,,,,,s_097,1,2022_Aug_29_1134,Reversal,3.2.4,60.06482197397301,
0,exp1.png,exp2.png,,,,,,,,,,,,,,,,,1,0,1,0,0,0,0,0,,,,,,,,,True,,,,,,,,,,,,,,,,,,,,,,,,,,,,,,,s_097,1,2022_Aug_29_1134,Reversal,3.2.4,60.06482197397301,
1,exp3.png,exp4.png,,,,,,,,,,,,,,,,,1,0,1,0,0,1,1,1,,,,,,,,,False,20,81,False,exp3.png,exp4.png,trial_right_image,-1,exp4.png,1,exp3.png,exp4.png,0,2,non-reversed,incorrect,0.9797620465602217,0,valid_lose,418.7542928000912,45,,,,,,,,,,,s_097,1,2022_Aug_29_1134,Reversal,3.2.4,60.06482197397301,
2,exp1.png,exp2.png,,,,,,,,,,,,,,,,,1,0,1,0,0,2,2,2,,,,,,,,,False,21,82,False,exp1.png,exp2.png,trial_left_image,1,exp1.png,1,exp2.png,exp1.png,1,3,reversed,incorrect,0.37782162478812575,0,valid_lose,422.6530589000322,45,,,,,,,,,,,s_097,1,2022_Aug_29_1134,Reversal,3.2.4,60.06482197397301,
3,exp3.png,exp4.png,,,,,,,,,,,,,,,,,1,0,1,0,0,3,3,3,,,,,,,,,False,22,83,True,exp4.png,exp3.png,trial_right_image,-1,exp3.png,1,exp3.png,exp4.png,1,1,non-reversed,correct,0.9154837614667762,1,valid_win,426.50256160018034,46,,,,,,,,,,,s_097,1,2022_Aug_29_1134,Reversal,3.2.4,60.06482197397301,
4,exp1.png,exp2.png,,,,,,,,,,,,,,,,,1,0,1,0,0,4,4,4,,,,,,,,,False,23,84,False,exp1.png,exp2.png,trial_right_image,-1,exp2.png,1,exp2.png,exp1.png,0,4,reversed,correct,0.7448955878385476,1,valid_win,430.4002402999904,47,,,,,,,,,,,s_097,1,2022_Aug_29_1134,Reversal,3.2.4,60.06482197397301,
5,exp3.png,exp4.png,,,,,,,,,,,,,,,,,1,0,1,0,0,5,5,5,,,,,,,,,False,24,85,False,exp3.png,exp4.png,trial_left_image,1,exp3.png,1,exp3.png,exp4.png,1,1,non-reversed,correct,0.6730259942238296,1,valid_win,434.51522980001755,48,,,,,,,,,,,s_097,1,2022_Aug_29_1134,Reversal,3.2.4,60.06482197397301,
6,exp1.png,exp2.png,,,,,,,,,,,,,,,,,1,0,1,0,0,6,6,6,,,,,,,,,False,25,86,True,exp2.png,exp1.png,trial_right_image,-1,exp1.png,1,exp2.png,exp1.png,1,3,reversed,incorrect,0.07702691267919715,1,invalid_win,438.4304314001929,49,,,,,,,,,,,s_097,1,2022_Aug_29_1134,Reversal,3.2.4,60.06482197397301,
7,exp3.png,exp4.png,,,,,,,,,,,,,,,,,1,0,1,0,0,7,7,7,,,,,,,,,False,26,87,True,exp4.png,exp3.png,trial_right_image,-1,exp3.png,1,exp3.png,exp4.png,1,1,non-reversed,correct,0.21327537632931415,0,invalid_lose,442.31329370010644,49,,,,,,,,,,,s_097,1,2022_Aug_29_1134,Reversal,3.2.4,60.06482197397301,
8,exp1.png,exp2.png,,,,,,,,,,,,,,,,,1,0,1,0,0,8,8,8,,,,,,,,,False,27,88,True,exp2.png,exp1.png,trial_right_image,-1,exp1.png,1,exp2.png,exp1.png,1,3,reversed,incorrect,0.10277064982140682,1,invalid_win,446.41226870007813,50,,,,,,,,,,,s_097,1,2022_Aug_29_1134,Reversal,3.2.4,60.06482197397301,
9,exp3.png,exp4.png,,,,,,,,,,,,,,,,,1,0,1,0,0,9,9,9,,,,,,,,,False,28,89,True,exp4.png,exp3.png,trial_right_image,-1,exp3.png,1,exp3.png,exp4.png,1,1,non-reversed,correct,0.6689056520872384,1,valid_win,450.3773550000042,51,,,,,,,,,,,s_097,1,2022_Aug_29_1134,Reversal,3.2.4,60.06482197397301,
10,exp1.png,exp2.png,,,,,,,,,,,,,,,,,1,0,1,0,0,10,10,10,,,,,,,,,False,29,90,False,exp1.png,exp2.png,trial_right_image,-1,exp2.png,1,exp2.png,exp1.png,0,4,reversed,correct,0.1446964619465183,0,invalid_lose,453.74198659998365,51,,,,,,,,,,,s_097,1,2022_Aug_29_1134,Reversal,3.2.4,60.06482197397301,
11,exp3.png,exp4.png,,,,,,,,,,,,,,,,,1,0,1,0,0,11,11,11,,,,,,,,,False,30,91,True,exp4.png,exp3.png,trial_left_image,1,exp4.png,1,exp3.png,exp4.png,0,2,non-reversed,incorrect,0.9440081211608167,0,valid_lose,457.6071076001972,51,,,,,,,,,,,s_097,1,2022_Aug_29_1134,Reversal,3.2.4,60.06482197397301,
12,exp1.png,exp2.png,,,,,,,,,,,,,,,,,1,0,1,0,0,12,12,12,,,,,,,,,False,31,92,False,exp1.png,exp2.png,trial_left_image,1,exp1.png,1,exp2.png,exp1.png,1,3,reversed,incorrect,0.06625823646127926,1,invalid_win,461.50684370007366,52,,,,,,,,,,,s_097,1,2022_Aug_29_1134,Reversal,3.2.4,60.06482197397301,
13,exp3.png,exp4.png,,,,,,,,,,,,,,,,,1,0,1,0,0,13,13,13,,,,,,,,,False,32,93,False,exp3.png,exp4.png,trial_left_image,1,exp3.png,1,exp3.png,exp4.png,1,1,non-reversed,correct,0.855108297725225,1,valid_win,465.3223737999797,53,,,,,,,,,,,s_097,1,2022_Aug_29_1134,Reversal,3.2.4,60.06482197397301,
14,exp1.png,exp2.png,,,,,,,,,,,,,,,,,1,0,1,0,0,14,14,14,,,,,,,,,False,33,94,False,exp1.png,exp2.png,trial_left_image,1,exp1.png,1,exp2.png,exp1.png,1,3,reversed,incorrect,0.574344579391052,0,valid_lose,469.2366246001329,53,,,,,,,,,,,s_097,1,2022_Aug_29_1134,Reversal,3.2.4,60.06482197397301,
15,exp3.png,exp4.png,,,,,,,,,,,,,,,,,1,0,1,0,0,15,15,15,,,,,,,,,False,34,95,False,exp3.png,exp4.png,trial_right_image,-1,exp4.png,1,exp3.png,exp4.png,0,2,non-reversed,incorrect,0.8041664359927575,0,valid_lose,473.56827500020154,53,,,,,,,,,,,s_097,1,2022_Aug_29_1134,Reversal,3.2.4,60.06482197397301,
16,exp1.png,exp2.png,,,,,,,,,,,,,,,,,1,0,1,0,0,16,16,16,,,,,,,,,False,35,96,True,exp2.png,exp1.png,trial_right_image,-1,exp1.png,1,exp2.png,exp1.png,1,3,reversed,incorrect,0.6569341881630272,0,valid_lose,476.81822940008715,53,,,,,,,,,,,s_097,1,2022_Aug_29_1134,Reversal,3.2.4,60.06482197397301,
17,exp3.png,exp4.png,,,,,,,,,,,,,,,,,1,0,1,0,0,17,17,17,,,,,,,,,False,36,97,True,exp4.png,exp3.png,trial_right_image,-1,exp3.png,1,exp3.png,exp4.png,1,1,non-reversed,correct,0.15393217498982525,0,invalid_lose,480.08316360018216,53,,,,,,,,,,,s_097,1,2022_Aug_29_1134,Reversal,3.2.4,60.06482197397301,
18,exp1.png,exp2.png,,,,,,,,,,,,,,,,,1,0,1,0,0,18,18,18,,,,,,,,,False,37,98,True,exp2.png,exp1.png,trial_right_image,-1,exp1.png,1,exp2.png,exp1.png,1,3,reversed,incorrect,0.7310251113015047,0,valid_lose,484.36521820002235,53,,,,,,,,,,,s_097,1,2022_Aug_29_1134,Reversal,3.2.4,60.06482197397301,
19,exp3.png,exp4.png,,,,,,,,,,,,,,,,,1,0,1,0,0,19,19,19,,,,,,,,,False,38,99,False,exp3.png,exp4.png,trial_left_image,1,exp3.png,1,exp3.png,exp4.png,1,1,non-reversed,correct,0.23799469089465697,0,invalid_lose,488.24732409999706,53,,,,,,,,,,,s_097,1,2022_Aug_29_1134,Reversal,3.2.4,60.06482197397301,
20,exp1.png,exp2.png,,,,,,,,,,,,,,,,,1,0,1,0,0,20,20,20,,,,,,,,,False,39,100,True,exp2.png,exp1.png,trial_right_image,-1,exp1.png,1,exp2.png,exp1.png,1,3,reversed,incorrect,0.9865067596445589,0,valid_lose,492.18021000013687,53,,,,,,,,,,,s_097,1,2022_Aug_29_1134,Reversal,3.2.4,60.06482197397301,
,,,,,,,,,,,,,,,,,,,1,0,1,0,,,,,0,0,0,0,,,,,,,,,,,,,,,,,,,,,,,,,,43,34,39,35,,,,,,,s_097,1,2022_Aug_29_1134,Reversal,3.2.4,60.06482197397301,
0,exp1.png,exp2.png,,,,,,,,,,,,,,,,,2,0,2,0,0,0,0,0,,,,,,,,,True,,,,,,,,,,,,,,,,,,,,,,,,,,,,,,,s_097,1,2022_Aug_29_1134,Reversal,3.2.4,60.06482197397301,
1,exp3.png,exp4.png,,,,,,,,,,,,,,,,,2,0,2,0,0,1,1,1,,,,,,,,,False,40,101,True,exp4.png,exp3.png,trial_right_image,-1,exp3.png,1,exp3.png,exp4.png,1,1,non-reversed,correct,0.9468909140011249,1,valid_win,507.45717320009135,54,,,,,,,,,,,s_097,1,2022_Aug_29_1134,Reversal,3.2.4,60.06482197397301,
2,exp1.png,exp2.png,,,,,,,,,,,,,,,,,2,0,2,0,0,2,2,2,,,,,,,,,False,41,102,False,exp1.png,exp2.png,trial_right_image,-1,exp2.png,1,exp2.png,exp1.png,0,4,reversed,correct,0.8234051690129084,1,valid_win,511.4722745001782,55,,,,,,,,,,,s_097,1,2022_Aug_29_1134,Reversal,3.2.4,60.06482197397301,
3,exp3.png,exp4.png,,,,,,,,,,,,,,,,,2,0,2,0,0,3,3,3,,,,,,,,,False,42,103,True,exp4.png,exp3.png,trial_right_image,-1,exp3.png,1,exp3.png,exp4.png,1,1,non-reversed,correct,0.7718978525225,1,valid_win,515.3379605000373,56,,,,,,,,,,,s_097,1,2022_Aug_29_1134,Reversal,3.2.4,60.06482197397301,
4,exp1.png,exp2.png,,,,,,,,,,,,,,,,,2,0,2,0,0,4,4,4,,,,,,,,,False,43,104,True,exp2.png,exp1.png,trial_left_image,1,exp2.png,1,exp2.png,exp1.png,0,4,reversed,correct,0.2856473605773794,1,valid_win,519.236697500106,57,,,,,,,,,,,s_097,1,2022_Aug_29_1134,Reversal,3.2.4,60.06482197397301,
5,exp3.png,exp4.png,,,,,,,,,,,,,,,,,2,0,2,0,0,5,5,5,,,,,,,,,False,44,105,False,exp3.png,exp4.png,trial_right_image,-1,exp4.png,1,exp3.png,exp4.png,0,2,non-reversed,incorrect,0.30555295067557997,0,valid_lose,523.0690082001965,57,,,,,,,,,,,s_097,1,2022_Aug_29_1134,Reversal,3.2.4,60.06482197397301,
6,exp1.png,exp2.png,,,,,,,,,,,,,,,,,2,0,2,0,0,6,6,6,,,,,,,,,False,45,106,True,exp2.png,exp1.png,trial_right_image,-1,exp1.png,1,exp2.png,exp1.png,1,3,reversed,incorrect,0.1818238437688784,1,invalid_win,527.3836603001691,58,,,,,,,,,,,s_097,1,2022_Aug_29_1134,Reversal,3.2.4,60.06482197397301,
7,exp3.png,exp4.png,,,,,,,,,,,,,,,,,2,0,2,0,0,7,7,7,,,,,,,,,False,46,107,False,exp3.png,exp4.png,trial_left_image,1,exp3.png,1,exp3.png,exp4.png,1,1,non-reversed,correct,0.38066759555966867,1,valid_win,531.6482731001452,59,,,,,,,,,,,s_097,1,2022_Aug_29_1134,Reversal,3.2.4,60.06482197397301,
8,exp1.png,exp2.png,,,,,,,,,,,,,,,,,2,0,2,0,0,8,8,8,,,,,,,,,False,47,108,False,exp1.png,exp2.png,trial_left_image,1,exp1.png,1,exp2.png,exp1.png,1,3,reversed,incorrect,0.33983659598346916,0,valid_lose,535.7306419999804,59,,,,,,,,,,,s_097,1,2022_Aug_29_1134,Reversal,3.2.4,60.06482197397301,
9,exp3.png,exp4.png,,,,,,,,,,,,,,,,,2,0,2,0,0,9,9,9,,,,,,,,,False,48,109,True,exp4.png,exp3.png,trial_right_image,-1,exp3.png,1,exp3.png,exp4.png,1,1,non-reversed,correct,0.8154529338323522,1,valid_win,539.7960126001853,60,,,,,,,,,,,s_097,1,2022_Aug_29_1134,Reversal,3.2.4,60.06482197397301,
10,exp1.png,exp2.png,,,,,,,,,,,,,,,,,2,0,2,0,0,10,10,10,,,,,,,,,False,49,110,True,exp2.png,exp1.png,trial_right_image,-1,exp1.png,1,exp2.png,exp1.png,1,3,reversed,incorrect,0.4995846892509821,0,valid_lose,543.8112046001479,60,,,,,,,,,,,s_097,1,2022_Aug_29_1134,Reversal,3.2.4,60.06482197397301,
11,exp3.png,exp4.png,,,,,,,,,,,,,,,,,2,0,2,0,0,11,11,11,,,,,,,,,False,50,111,True,exp4.png,exp3.png,trial_right_image,-1,exp3.png,1,exp3.png,exp4.png,1,1,non-reversed,correct,0.882463989700431,1,valid_win,547.8775760000572,61,,,,,,,,,,,s_097,1,2022_Aug_29_1134,Reversal,3.2.4,60.06482197397301,
12,exp1.png,exp2.png,,,,,,,,,,,,,,,,,2,0,2,0,0,12,12,12,,,,,,,,,False,51,112,False,exp1.png,exp2.png,trial_left_image,1,exp1.png,1,exp2.png,exp1.png,1,3,reversed,incorrect,0.8844547244116882,0,valid_lose,552.0420072001871,61,,,,,,,,,,,s_097,1,2022_Aug_29_1134,Reversal,3.2.4,60.06482197397301,
13,exp3.png,exp4.png,,,,,,,,,,,,,,,,,2,0,2,0,0,13,13,13,,,,,,,,,False,52,113,False,exp3.png,exp4.png,trial_left_image,1,exp3.png,1,exp3.png,exp4.png,1,1,non-reversed,correct,0.4684269977907457,1,valid_win,555.9906558999792,62,,,,,,,,,,,s_097,1,2022_Aug_29_1134,Reversal,3.2.4,60.06482197397301,
14,exp1.png,exp2.png,,,,,,,,,,,,,,,,,2,0,2,0,0,14,14,14,,,,,,,,,False,53,114,True,exp2.png,exp1.png,trial_right_image,-1,exp1.png,1,exp2.png,exp1.png,1,3,reversed,incorrect,0.6323563982466599,0,valid_lose,560.323710600147,62,,,,,,,,,,,s_097,1,2022_Aug_29_1134,Reversal,3.2.4,60.06482197397301,
15,exp3.png,exp4.png,,,,,,,,,,,,,,,,,2,0,2,0,0,15,15,15,,,,,,,,,False,54,115,False,exp3.png,exp4.png,trial_left_image,1,exp3.png,1,exp3.png,exp4.png,1,1,non-reversed,correct,0.33782646391643123,1,valid_win,564.4384717000648,63,,,,,,,,,,,s_097,1,2022_Aug_29_1134,Reversal,3.2.4,60.06482197397301,
16,exp1.png,exp2.png,,,,,,,,,,,,,,,,,2,0,2,0,0,16,16,16,,,,,,,,,False,55,116,False,exp1.png,exp2.png,trial_left_image,1,exp1.png,1,exp2.png,exp1.png,1,3,reversed,incorrect,0.16933396118973143,1,invalid_win,568.6691714001354,64,,,,,,,,,,,s_097,1,2022_Aug_29_1134,Reversal,3.2.4,60.06482197397301,
17,exp3.png,exp4.png,,,,,,,,,,,,,,,,,2,0,2,0,0,17,17,17,,,,,,,,,False,56,117,False,exp3.png,exp4.png,trial_left_image,1,exp3.png,1,exp3.png,exp4.png,1,1,non-reversed,correct,0.8055898197008646,1,valid_win,572.8187363001052,65,,,,,,,,,,,s_097,1,2022_Aug_29_1134,Reversal,3.2.4,60.06482197397301,
18,exp1.png,exp2.png,,,,,,,,,,,,,,,,,2,0,2,0,0,18,18,18,,,,,,,,,False,57,118,True,exp2.png,exp1.png,trial_right_image,-1,exp1.png,1,exp2.png,exp1.png,1,3,reversed,incorrect,0.47623237792225614,0,valid_lose,577.0333513000514,65,,,,,,,,,,,s_097,1,2022_Aug_29_1134,Reversal,3.2.4,60.06482197397301,
19,exp3.png,exp4.png,,,,,,,,,,,,,,,,,2,0,2,0,0,19,19,19,,,,,,,,,False,58,119,True,exp4.png,exp3.png,trial_right_image,-1,exp3.png,1,exp3.png,exp4.png,1,1,non-reversed,correct,0.5053949972571721,1,valid_win,581.1993565000594,66,,,,,,,,,,,s_097,1,2022_Aug_29_1134,Reversal,3.2.4,60.06482197397301,
20,exp1.png,exp2.png,,,,,,,,,,,,,,,,,2,0,2,0,0,20,20,20,,,,,,,,,False,59,120,False,exp1.png,exp2.png,trial_left_image,1,exp1.png,1,exp2.png,exp1.png,1,3,reversed,incorrect,0.8726091154372758,0,valid_lose,585.5634540000465,66,,,,,,,,,,,s_097,1,2022_Aug_29_1134,Reversal,3.2.4,60.06482197397301,
,,,,,,,,,,,,,,,,,,,2,0,2,0,,,,,0,0,0,0,,,,,,,,,,,,,,,,,,,,,,,,,,59,45,55,44,,,,,,,s_097,1,2022_Aug_29_1134,Reversal,3.2.4,60.06482197397301,
,,,,,,,,,,,,,,,,,,,,,,,,,,,,,,,,,,,,,,,,,,,,,,,,,,,,,,,66,,,,,,71,40,31,274.5644016000442,0,,,,,,,
