trial_index,trial_image1_file,trial_image2_file,learning_outer_loop.thisRepN,learning_outer_loop.thisTrialN,learning_outer_loop.thisN,learning_outer_loop.thisIndex,learning_inner_loop.thisRepN,learning_inner_loop.thisTrialN,learning_inner_loop.thisN,learning_inner_loop.thisIndex,learning_estimation_outer_loop.thisRepN,learning_estimation_outer_loop.thisTrialN,learning_estimation_outer_loop.thisN,learning_estimation_outer_loop.thisIndex,learning_estimation_inner_loop.thisRepN,learning_estimation_inner_loop.thisTrialN,learning_estimation_inner_loop.thisN,learning_estimation_inner_loop.thisIndex,reversal_outer_loop.thisRepN,reversal_outer_loop.thisTrialN,reversal_outer_loop.thisN,reversal_outer_loop.thisIndex,reversal_inner_loop.thisRepN,reversal_inner_loop.thisTrialN,reversal_inner_loop.thisN,reversal_inner_loop.thisIndex,reversal_estimation_outer_loop.thisRepN,reversal_estimation_outer_loop.thisTrialN,reversal_estimation_outer_loop.thisN,reversal_estimation_outer_loop.thisIndex,reversal_estimation_inner_loop.thisRepN,reversal_estimation_inner_loop.thisTrialN,reversal_estimation_inner_loop.thisN,reversal_estimation_inner_loop.thisIndex,skipped,total_trial_counter,trial_num,left_right_flip,left_image_file,right_image_file,clicked_stimulus_side,side,clicked_stimulus,version,high_prob_image_file,low_prob_image_file,choice_a,choice_b,pair_type,correct,trial_feedback_random,reward,trial_type,overall_time_after_trial,score,estimation_exp1.png,estimation_exp2.png,estimation_exp3.png,estimation_exp4.png,total_learning_time,total_correct,learning_correct,reversal_correct,total_reversal_time,extra_block,participant,ver,date,expName,psychopyVersion,frameRate,
0,exp1.png,exp2.png,0,0,0,0,0,0,0,0,,,,,,,,,,,,,,,,,,,,,,,,,True,,,,,,,,,,,,,,,,,,,,,,,,,,,,,,,s_098,1,2022_Sep_05_1044,Reversal,3.2.4,60.00808917995923,
1,exp3.png,exp4.png,0,0,0,0,0,1,1,1,,,,,,,,,,,,,,,,,,,,,,,,,False,0,1,True,exp4.png,exp3.png,trial_left_image,1,exp4.png,1,exp3.png,exp4.png,0,2,non-reversed,incorrect,0.7912385872251091,0,valid_lose,5.410515799652785,0,,,,,,,,,,,s_098,1,2022_Sep_05_1044,Reversal,3.2.4,60.00808917995923,
2,exp1.png,exp2.png,0,0,0,0,0,2,2,2,,,,,,,,,,,,,,,,,,,,,,,,,False,1,2,False,exp1.png,exp2.png,trial_right_image,-1,exp2.png,1,exp1.png,exp2.png,0,4,reversed,incorrect,0.9315773277511602,0,valid_lose,17.80651139980182,0,,,,,,,,,,,s_098,1,2022_Sep_05_1044,Reversal,3.2.4,60.00808917995923,
3,exp3.png,exp4.png,0,0,0,0,0,3,3,3,,,,,,,,,,,,,,,,,,,,,,,,,False,2,3,True,exp4.png,exp3.png,trial_left_image,1,exp4.png,1,exp3.png,exp4.png,0,2,non-reversed,incorrect,0.26950799870259,0,valid_lose,23.738122299779207,0,,,,,,,,,,,s_098,1,2022_Sep_05_1044,Reversal,3.2.4,60.00808917995923,
4,exp1.png,exp2.png,0,0,0,0,0,4,4,4,,,,,,,,,,,,,,,,,,,,,,,,,False,3,4,True,exp2.png,exp1.png,trial_left_image,1,exp2.png,1,exp1.png,exp2.png,0,4,reversed,incorrect,0.6037086544449656,0,valid_lose,29.16932519990951,0,,,,,,,,,,,s_098,1,2022_Sep_05_1044,Reversal,3.2.4,60.00808917995923,
5,exp3.png,exp4.png,0,0,0,0,0,5,5,5,,,,,,,,,,,,,,,,,,,,,,,,,False,4,5,True,exp4.png,exp3.png,trial_right_image,-1,exp3.png,1,exp3.png,exp4.png,1,1,non-reversed,correct,0.5973176794078159,1,valid_win,34.56654379982501,1,,,,,,,,,,,s_098,1,2022_Sep_05_1044,Reversal,3.2.4,60.00808917995923,
6,exp1.png,exp2.png,0,0,0,0,0,6,6,6,,,,,,,,,,,,,,,,,,,,,,,,,False,5,6,True,exp2.png,exp1.png,trial_right_image,-1,exp1.png,1,exp1.png,exp2.png,1,3,reversed,correct,0.396395802705397,1,valid_win,39.84888309985399,2,,,,,,,,,,,s_098,1,2022_Sep_05_1044,Reversal,3.2.4,60.00808917995923,
7,exp3.png,exp4.png,0,0,0,0,0,7,7,7,,,,,,,,,,,,,,,,,,,,,,,,,False,6,7,False,exp3.png,exp4.png,trial_right_image,-1,exp4.png,1,exp3.png,exp4.png,0,2,non-reversed,incorrect,0.4990771309334635,0,valid_lose,44.680030699819326,2,,,,,,,,,,,s_098,1,2022_Sep_05_1044,Reversal,3.2.4,60.00808917995923,
8,exp1.png,exp2.png,0,0,0,0,0,8,8,8,,,,,,,,,,,,,,,,,,,,,,,,,False,7,8,False,exp1.png,exp2.png,trial_right_image,-1,exp2.png,1,exp1.png,exp2.png,0,4,reversed,incorrect,0.9186544955429139,0,valid_lose,49.3122770995833,2,,,,,,,,,,,s_098,1,2022_Sep_05_1044,Reversal,3.2.4,60.00808917995923,
9,exp3.png,exp4.png,0,0,0,0,0,9,9,9,,,,,,,,,,,,,,,,,,,,,,,,,False,8,9,False,exp3.png,exp4.png,trial_right_image,-1,exp4.png,1,exp3.png,exp4.png,0,2,non-reversed,incorrect,0.3546516459986534,0,valid_lose,53.72728529991582,2,,,,,,,,,,,s_098,1,2022_Sep_05_1044,Reversal,3.2.4,60.00808917995923,
10,exp1.png,exp2.png,0,0,0,0,0,10,10,10,,,,,,,,,,,,,,,,,,,,,,,,,False,9,10,False,exp1.png,exp2.png,trial_left_image,1,exp1.png,1,exp1.png,exp2.png,1,3,reversed,correct,0.427867823275611,1,valid_win,58.14316069986671,3,,,,,,,,,,,s_098,1,2022_Sep_05_1044,Reversal,3.2.4,60.00808917995923,
11,exp3.png,exp4.png,0,0,0,0,0,11,11,11,,,,,,,,,,,,,,,,,,,,,,,,,False,10,11,True,exp4.png,exp3.png,trial_left_image,1,exp4.png,1,exp3.png,exp4.png,0,2,non-reversed,incorrect,0.7531065419930001,0,valid_lose,63.206953699700534,3,,,,,,,,,,,s_098,1,2022_Sep_05_1044,Reversal,3.2.4,60.00808917995923,
12,exp1.png,exp2.png,0,0,0,0,0,12,12,12,,,,,,,,,,,,,,,,,,,,,,,,,False,11,12,False,exp1.png,exp2.png,trial_right_image,-1,exp2.png,1,exp1.png,exp2.png,0,4,reversed,incorrect,0.7096396351974988,0,valid_lose,67.9562063999474,3,,,,,,,,,,,s_098,1,2022_Sep_05_1044,Reversal,3.2.4,60.00808917995923,
13,exp3.png,exp4.png,0,0,0,0,0,13,13,13,,,,,,,,,,,,,,,,,,,,,,,,,False,12,13,True,exp4.png,exp3.png,trial_left_image,1,exp4.png,1,exp3.png,exp4.png,0,2,non-reversed,incorrect,0.992186724050255,0,valid_lose,72.97148029971868,3,,,,,,,,,,,s_098,1,2022_Sep_05_1044,Reversal,3.2.4,60.00808917995923,
14,exp1.png,exp2.png,0,0,0,0,0,14,14,14,,,,,,,,,,,,,,,,,,,,,,,,,False,13,14,True,exp2.png,exp1.png,trial_right_image,-1,exp1.png,1,exp1.png,exp2.png,1,3,reversed,correct,0.6918766179502664,1,valid_win,77.65333199966699,4,,,,,,,,,,,s_098,1,2022_Sep_05_1044,Reversal,3.2.4,60.00808917995923,
15,exp3.png,exp4.png,0,0,0,0,0,15,15,15,,,,,,,,,,,,,,,,,,,,,,,,,False,14,15,True,exp4.png,exp3.png,trial_right_image,-1,exp3.png,1,exp3.png,exp4.png,1,1,non-reversed,correct,0.9506967869469729,1,valid_win,82.66730069974437,5,,,,,,,,,,,s_098,1,2022_Sep_05_1044,Reversal,3.2.4,60.00808917995923,
16,exp1.png,exp2.png,0,0,0,0,0,16,16,16,,,,,,,,,,,,,,,,,,,,,,,,,False,15,16,False,exp1.png,exp2.png,trial_right_image,-1,exp2.png,1,exp1.png,exp2.png,0,4,reversed,incorrect,0.6825036536808134,0,valid_lose,87.50027759978548,5,,,,,,,,,,,s_098,1,2022_Sep_05_1044,Reversal,3.2.4,60.00808917995923,
17,exp3.png,exp4.png,0,0,0,0,0,17,17,17,,,,,,,,,,,,,,,,,,,,,,,,,False,16,17,False,exp3.png,exp4.png,trial_left_image,1,exp3.png,1,exp3.png,exp4.png,1,1,non-reversed,correct,0.9645490048047847,1,valid_win,92.58121069986373,6,,,,,,,,,,,s_098,1,2022_Sep_05_1044,Reversal,3.2.4,60.00808917995923,
18,exp1.png,exp2.png,0,0,0,0,0,18,18,18,,,,,,,,,,,,,,,,,,,,,,,,,False,17,18,False,exp1.png,exp2.png,trial_left_image,1,exp1.png,1,exp1.png,exp2.png,1,3,reversed,correct,0.9477680003964213,1,valid_win,99.02807080000639,7,,,,,,,,,,,s_098,1,2022_Sep_05_1044,Reversal,3.2.4,60.00808917995923,
19,exp3.png,exp4.png,0,0,0,0,0,19,19,19,,,,,,,,,,,,,,,,,,,,,,,,,False,18,19,True,exp4.png,exp3.png,trial_left_image,1,exp4.png,1,exp3.png,exp4.png,0,2,non-reversed,incorrect,0.22459684641413402,1,invalid_win,106.24307399988174,8,,,,,,,,,,,s_098,1,2022_Sep_05_1044,Reversal,3.2.4,60.00808917995923,
20,exp1.png,exp2.png,0,0,0,0,0,20,20,20,,,,,,,,,,,,,,,,,,,,,,,,,False,19,20,False,exp1.png,exp2.png,trial_right_image,-1,exp2.png,1,exp1.png,exp2.png,0,4,reversed,incorrect,0.8288918810076515,0,valid_lose,112.37500360002741,8,,,,,,,,,,,s_098,1,2022_Sep_05_1044,Reversal,3.2.4,60.00808917995923,
,,,0,0,0,0,,,,,0,0,0,0,,,,,,,,,,,,,,,,,,,,,,,,,,,,,,,,,,,,,,,,,,50.0,68,40,62,,,,,,,s_098,1,2022_Sep_05_1044,Reversal,3.2.4,60.00808917995923,
0,exp1.png,exp2.png,1,0,1,0,0,0,0,0,,,,,,,,,,,,,,,,,,,,,,,,,True,,,,,,,,,,,,,,,,,,,,,,,,,,,,,,,s_098,1,2022_Sep_05_1044,Reversal,3.2.4,60.00808917995923,
1,exp3.png,exp4.png,1,0,1,0,0,1,1,1,,,,,,,,,,,,,,,,,,,,,,,,,False,20,21,True,exp4.png,exp3.png,trial_left_image,1,exp4.png,1,exp3.png,exp4.png,0,2,non-reversed,incorrect,0.7836361898006279,0,valid_lose,147.29504559980705,8,,,,,,,,,,,s_098,1,2022_Sep_05_1044,Reversal,3.2.4,60.00808917995923,
2,exp1.png,exp2.png,1,0,1,0,0,2,2,2,,,,,,,,,,,,,,,,,,,,,,,,,False,21,22,False,exp1.png,exp2.png,trial_left_image,1,exp1.png,1,exp1.png,exp2.png,1,3,reversed,correct,0.1360150747511728,0,invalid_lose,152.79432729957625,8,,,,,,,,,,,s_098,1,2022_Sep_05_1044,Reversal,3.2.4,60.00808917995923,
3,exp3.png,exp4.png,1,0,1,0,0,3,3,3,,,,,,,,,,,,,,,,,,,,,,,,,False,22,23,True,exp4.png,exp3.png,trial_right_image,-1,exp3.png,1,exp3.png,exp4.png,1,1,non-reversed,correct,0.8843331991660872,1,valid_win,160.39145349990577,9,,,,,,,,,,,s_098,1,2022_Sep_05_1044,Reversal,3.2.4,60.00808917995923,
4,exp1.png,exp2.png,1,0,1,0,0,4,4,4,,,,,,,,,,,,,,,,,,,,,,,,,False,23,24,True,exp2.png,exp1.png,trial_left_image,1,exp2.png,1,exp1.png,exp2.png,0,4,reversed,incorrect,0.5857492530147309,0,valid_lose,166.7559634996578,9,,,,,,,,,,,s_098,1,2022_Sep_05_1044,Reversal,3.2.4,60.00808917995923,
5,exp3.png,exp4.png,1,0,1,0,0,5,5,5,,,,,,,,,,,,,,,,,,,,,,,,,False,24,25,True,exp4.png,exp3.png,trial_right_image,-1,exp3.png,1,exp3.png,exp4.png,1,1,non-reversed,correct,0.2129899906164594,0,invalid_lose,173.68649180000648,9,,,,,,,,,,,s_098,1,2022_Sep_05_1044,Reversal,3.2.4,60.00808917995923,
6,exp1.png,exp2.png,1,0,1,0,0,6,6,6,,,,,,,,,,,,,,,,,,,,,,,,,False,25,26,True,exp2.png,exp1.png,trial_right_image,-1,exp1.png,1,exp1.png,exp2.png,1,3,reversed,correct,0.2074154889850277,0,invalid_lose,179.63476309971884,9,,,,,,,,,,,s_098,1,2022_Sep_05_1044,Reversal,3.2.4,60.00808917995923,
7,exp3.png,exp4.png,1,0,1,0,0,7,7,7,,,,,,,,,,,,,,,,,,,,,,,,,False,26,27,False,exp3.png,exp4.png,trial_right_image,-1,exp4.png,1,exp3.png,exp4.png,0,2,non-reversed,incorrect,0.15753458373427331,1,invalid_win,185.4153185999021,10,,,,,,,,,,,s_098,1,2022_Sep_05_1044,Reversal,3.2.4,60.00808917995923,
8,exp1.png,exp2.png,1,0,1,0,0,8,8,8,,,,,,,,,,,,,,,,,,,,,,,,,False,27,28,False,exp1.png,exp2.png,trial_right_image,-1,exp2.png,1,exp1.png,exp2.png,0,4,reversed,incorrect,0.8753892368862458,0,valid_lose,191.79739589989185,10,,,,,,,,,,,s_098,1,2022_Sep_05_1044,Reversal,3.2.4,60.00808917995923,
9,exp3.png,exp4.png,1,0,1,0,0,9,9,9,,,,,,,,,,,,,,,,,,,,,,,,,False,28,29,False,exp3.png,exp4.png,trial_right_image,-1,exp4.png,1,exp3.png,exp4.png,0,2,non-reversed,incorrect,0.06585659238451891,1,invalid_win,198.64441949967295,11,,,,,,,,,,,s_098,1,2022_Sep_05_1044,Reversal,3.2.4,60.00808917995923,
10,exp1.png,exp2.png,1,0,1,0,0,10,10,10,,,,,,,,,,,,,,,,,,,,,,,,,False,29,30,True,exp2.png,exp1.png,trial_left_image,1,exp2.png,1,exp1.png,exp2.png,0,4,reversed,incorrect,0.4575341044229534,0,valid_lose,205.42622919986024,11,,,,,,,,,,,s_098,1,2022_Sep_05_1044,Reversal,3.2.4,60.00808917995923,
11,exp3.png,exp4.png,1,0,1,0,0,11,11,11,,,,,,,,,,,,,,,,,,,,,,,,,False,30,31,True,exp4.png,exp3.png,trial_left_image,1,exp4.png,1,exp3.png,exp4.png,0,2,non-reversed,incorrect,0.43139783117526875,0,valid_lose,212.80629989970475,11,,,,,,,,,,,s_098,1,2022_Sep_05_1044,Reversal,3.2.4,60.00808917995923,
12,exp1.png,exp2.png,1,0,1,0,0,12,12,12,,,,,,,,,,,,,,,,,,,,,,,,,False,31,32,False,exp1.png,exp2.png,trial_left_image,1,exp1.png,1,exp1.png,exp2.png,1,3,reversed,correct,0.5364839608000419,1,valid_win,218.82161109987646,12,,,,,,,,,,,s_098,1,2022_Sep_05_1044,Reversal,3.2.4,60.00808917995923,
13,exp3.png,exp4.png,1,0,1,0,0,13,13,13,,,,,,,,,,,,,,,,,,,,,,,,,False,32,33,True,exp4.png,exp3.png,trial_left_image,1,exp4.png,1,exp3.png,exp4.png,0,2,non-reversed,incorrect,0.4414291900713264,0,valid_lose,226.30265469988808,12,,,,,,,,,,,s_098,1,2022_Sep_05_1044,Reversal,3.2.4,60.00808917995923,
14,exp1.png,exp2.png,1,0,1,0,0,14,14,14,,,,,,,,,,,,,,,,,,,,,,,,,False,33,34,True,exp2.png,exp1.png,trial_right_image,-1,exp1.png,1,exp1.png,exp2.png,1,3,reversed,correct,0.22911947681677536,0,invalid_lose,230.78736279997975,12,,,,,,,,,,,s_098,1,2022_Sep_05_1044,Reversal,3.2.4,60.00808917995923,
15,exp3.png,exp4.png,1,0,1,0,0,15,15,15,,,,,,,,,,,,,,,,,,,,,,,,,False,34,35,False,exp3.png,exp4.png,trial_right_image,-1,exp4.png,1,exp3.png,exp4.png,0,2,non-reversed,incorrect,0.3011341940649531,0,valid_lose,236.81530599994585,12,,,,,,,,,,,s_098,1,2022_Sep_05_1044,Reversal,3.2.4,60.00808917995923,
16,exp1.png,exp2.png,1,0,1,0,0,16,16,16,,,,,,,,,,,,,,,,,,,,,,,,,False,35,36,False,exp1.png,exp2.png,trial_right_image,-1,exp2.png,1,exp1.png,exp2.png,0,4,reversed,incorrect,0.4470721630618161,0,valid_lose,242.51264659967273,12,,,,,,,,,,,s_098,1,2022_Sep_05_1044,Reversal,3.2.4,60.00808917995923,
17,exp3.png,exp4.png,1,0,1,0,0,17,17,17,,,,,,,,,,,,,,,,,,,,,,,,,False,36,37,False,exp3.png,exp4.png,trial_right_image,-1,exp4.png,1,exp3.png,exp4.png,0,2,non-reversed,incorrect,0.32129957443007984,0,valid_lose,247.5950150997378,12,,,,,,,,,,,s_098,1,2022_Sep_05_1044,Reversal,3.2.4,60.00808917995923,
18,exp1.png,exp2.png,1,0,1,0,0,18,18,18,,,,,,,,,,,,,,,,,,,,,,,,,False,37,38,True,exp2.png,exp1.png,trial_right_image,-1,exp1.png,1,exp1.png,exp2.png,1,3,reversed,correct,0.12597210592949004,0,invalid_lose,253.260397200007,12,,,,,,,,,,,s_098,1,2022_Sep_05_1044,Reversal,3.2.4,60.00808917995923,
19,exp3.png,exp4.png,1,0,1,0,0,19,19,19,,,,,,,,,,,,,,,,,,,,,,,,,False,38,39,False,exp3.png,exp4.png,trial_left_image,1,exp3.png,1,exp3.png,exp4.png,1,1,non-reversed,correct,0.4011117519465647,1,valid_win,258.6252071997151,13,,,,,,,,,,,s_098,1,2022_Sep_05_1044,Reversal,3.2.4,60.00808917995923,
20,exp1.png,exp2.png,1,0,1,0,0,20,20,20,,,,,,,,,,,,,,,,,,,,,,,,,False,39,40,False,exp1.png,exp2.png,trial_left_image,1,exp1.png,1,exp1.png,exp2.png,1,3,reversed,correct,0.7515393259189287,1,valid_win,265.38864509994164,14,,,,,,,,,,,s_098,1,2022_Sep_05_1044,Reversal,3.2.4,60.00808917995923,
,,,1,0,1,0,,,,,0,0,0,0,,,,,,,,,,,,,,,,,,,,,,,,,,,,,,,,,,,,,,,,,,34,39,57,50.0,,,,,,,s_098,1,2022_Sep_05_1044,Reversal,3.2.4,60.00808917995923,
0,exp1.png,exp2.png,2,0,2,0,0,0,0,0,,,,,,,,,,,,,,,,,,,,,,,,,True,,,,,,,,,,,,,,,,,,,,,,,,,,,,,,,s_098,1,2022_Sep_05_1044,Reversal,3.2.4,60.00808917995923,
1,exp3.png,exp4.png,2,0,2,0,0,1,1,1,,,,,,,,,,,,,,,,,,,,,,,,,False,40,41,False,exp3.png,exp4.png,trial_left_image,1,exp3.png,1,exp3.png,exp4.png,1,1,non-reversed,correct,0.4542350482385774,1,valid_win,296.46211759978905,15,,,,,,,,,,,s_098,1,2022_Sep_05_1044,Reversal,3.2.4,60.00808917995923,
2,exp1.png,exp2.png,2,0,2,0,0,2,2,2,,,,,,,,,,,,,,,,,,,,,,,,,False,41,42,False,exp1.png,exp2.png,trial_right_image,-1,exp2.png,1,exp1.png,exp2.png,0,4,reversed,incorrect,0.019879802238843003,1,invalid_win,303.1926598995924,16,,,,,,,,,,,s_098,1,2022_Sep_05_1044,Reversal,3.2.4,60.00808917995923,
3,exp3.png,exp4.png,2,0,2,0,0,3,3,3,,,,,,,,,,,,,,,,,,,,,,,,,False,42,43,True,exp4.png,exp3.png,trial_right_image,-1,exp3.png,1,exp3.png,exp4.png,1,1,non-reversed,correct,0.3179701095088415,1,valid_win,311.3904716996476,17,,,,,,,,,,,s_098,1,2022_Sep_05_1044,Reversal,3.2.4,60.00808917995923,
4,exp1.png,exp2.png,2,0,2,0,0,4,4,4,,,,,,,,,,,,,,,,,,,,,,,,,False,43,44,False,exp1.png,exp2.png,trial_right_image,-1,exp2.png,1,exp1.png,exp2.png,0,4,reversed,incorrect,0.34898737979268524,0,valid_lose,322.8199513996951,17,,,,,,,,,,,s_098,1,2022_Sep_05_1044,Reversal,3.2.4,60.00808917995923,
5,exp3.png,exp4.png,2,0,2,0,0,5,5,5,,,,,,,,,,,,,,,,,,,,,,,,,False,44,45,True,exp4.png,exp3.png,trial_right_image,-1,exp3.png,1,exp3.png,exp4.png,1,1,non-reversed,correct,0.03225836409768268,0,invalid_lose,330.1177726997994,17,,,,,,,,,,,s_098,1,2022_Sep_05_1044,Reversal,3.2.4,60.00808917995923,
6,exp1.png,exp2.png,2,0,2,0,0,6,6,6,,,,,,,,,,,,,,,,,,,,,,,,,False,45,46,False,exp1.png,exp2.png,trial_left_image,1,exp1.png,1,exp1.png,exp2.png,1,3,reversed,correct,0.9593898582554563,1,valid_win,335.4654061999172,18,,,,,,,,,,,s_098,1,2022_Sep_05_1044,Reversal,3.2.4,60.00808917995923,
7,exp3.png,exp4.png,2,0,2,0,0,7,7,7,,,,,,,,,,,,,,,,,,,,,,,,,False,46,47,False,exp3.png,exp4.png,trial_left_image,1,exp3.png,1,exp3.png,exp4.png,1,1,non-reversed,correct,0.016047262495088588,0,invalid_lose,341.3136395998299,18,,,,,,,,,,,s_098,1,2022_Sep_05_1044,Reversal,3.2.4,60.00808917995923,
8,exp1.png,exp2.png,2,0,2,0,0,8,8,8,,,,,,,,,,,,,,,,,,,,,,,,,False,47,48,True,exp2.png,exp1.png,trial_right_image,-1,exp1.png,1,exp1.png,exp2.png,1,3,reversed,correct,0.28041500102728745,1,valid_win,346.4953215997666,19,,,,,,,,,,,s_098,1,2022_Sep_05_1044,Reversal,3.2.4,60.00808917995923,
9,exp3.png,exp4.png,2,0,2,0,0,9,9,9,,,,,,,,,,,,,,,,,,,,,,,,,False,48,49,False,exp3.png,exp4.png,trial_right_image,-1,exp4.png,1,exp3.png,exp4.png,0,2,non-reversed,incorrect,0.6247996344579012,0,valid_lose,352.5430121999234,19,,,,,,,,,,,s_098,1,2022_Sep_05_1044,Reversal,3.2.4,60.00808917995923,
10,exp1.png,exp2.png,2,0,2,0,0,10,10,10,,,,,,,,,,,,,,,,,,,,,,,,,False,49,50,True,exp2.png,exp1.png,trial_right_image,-1,exp1.png,1,exp1.png,exp2.png,1,3,reversed,correct,0.15728022655605034,0,invalid_lose,358.9904246996157,19,,,,,,,,,,,s_098,1,2022_Sep_05_1044,Reversal,3.2.4,60.00808917995923,
11,exp3.png,exp4.png,2,0,2,0,0,11,11,11,,,,,,,,,,,,,,,,,,,,,,,,,False,50,51,True,exp4.png,exp3.png,trial_left_image,1,exp4.png,1,exp3.png,exp4.png,0,2,non-reversed,incorrect,0.6238668377256182,0,valid_lose,366.32105449959636,19,,,,,,,,,,,s_098,1,2022_Sep_05_1044,Reversal,3.2.4,60.00808917995923,
12,exp1.png,exp2.png,2,0,2,0,0,12,12,12,,,,,,,,,,,,,,,,,,,,,,,,,False,51,52,True,exp2.png,exp1.png,trial_left_image,1,exp2.png,1,exp1.png,exp2.png,0,4,reversed,incorrect,0.2189074474495175,1,invalid_win,372.05291319964454,20,,,,,,,,,,,s_098,1,2022_Sep_05_1044,Reversal,3.2.4,60.00808917995923,
13,exp3.png,exp4.png,2,0,2,0,0,13,13,13,,,,,,,,,,,,,,,,,,,,,,,,,False,52,53,False,exp3.png,exp4.png,trial_right_image,-1,exp4.png,1,exp3.png,exp4.png,0,2,non-reversed,incorrect,0.4117995674881596,0,valid_lose,377.4339954997413,20,,,,,,,,,,,s_098,1,2022_Sep_05_1044,Reversal,3.2.4,60.00808917995923,
14,exp1.png,exp2.png,2,0,2,0,0,14,14,14,,,,,,,,,,,,,,,,,,,,,,,,,False,53,54,False,exp1.png,exp2.png,trial_right_image,-1,exp2.png,1,exp1.png,exp2.png,0,4,reversed,incorrect,0.7521283544696665,0,valid_lose,384.4811987997964,20,,,,,,,,,,,s_098,1,2022_Sep_05_1044,Reversal,3.2.4,60.00808917995923,
15,exp3.png,exp4.png,2,0,2,0,0,15,15,15,,,,,,,,,,,,,,,,,,,,,,,,,False,54,55,True,exp4.png,exp3.png,trial_right_image,-1,exp3.png,1,exp3.png,exp4.png,1,1,non-reversed,correct,0.6801937369158828,1,valid_win,389.76279849978164,21,,,,,,,,,,,s_098,1,2022_Sep_05_1044,Reversal,3.2.4,60.00808917995923,
16,exp1.png,exp2.png,2,0,2,0,0,16,16,16,,,,,,,,,,,,,,,,,,,,,,,,,False,55,56,False,exp1.png,exp2.png,trial_left_image,1,exp1.png,1,exp1.png,exp2.png,1,3,reversed,correct,0.8662522053095678,1,valid_win,394.7122824997641,22,,,,,,,,,,,s_098,1,2022_Sep_05_1044,Reversal,3.2.4,60.00808917995923,
17,exp3.png,exp4.png,2,0,2,0,0,17,17,17,,,,,,,,,,,,,,,,,,,,,,,,,False,56,57,True,exp4.png,exp3.png,trial_right_image,-1,exp3.png,1,exp3.png,exp4.png,1,1,non-reversed,correct,0.02852513728641204,0,invalid_lose,401.74253339972347,22,,,,,,,,,,,s_098,1,2022_Sep_05_1044,Reversal,3.2.4,60.00808917995923,
18,exp1.png,exp2.png,2,0,2,0,0,18,18,18,,,,,,,,,,,,,,,,,,,,,,,,,False,57,58,False,exp1.png,exp2.png,trial_left_image,1,exp1.png,1,exp1.png,exp2.png,1,3,reversed,correct,0.8041396323533762,1,valid_win,407.49086529994383,23,,,,,,,,,,,s_098,1,2022_Sep_05_1044,Reversal,3.2.4,60.00808917995923,
19,exp3.png,exp4.png,2,0,2,0,0,19,19,19,,,,,,,,,,,,,,,,,,,,,,,,,False,58,59,True,exp4.png,exp3.png,trial_left_image,1,exp4.png,1,exp3.png,exp4.png,0,2,non-reversed,incorrect,0.5421060455992482,0,valid_lose,415.2892324998975,23,,,,,,,,,,,s_098,1,2022_Sep_05_1044,Reversal,3.2.4,60.00808917995923,
20,exp1.png,exp2.png,2,0,2,0,0,20,20,20,,,,,,,,,,,,,,,,,,,,,,,,,False,59,60,True,exp2.png,exp1.png,trial_right_image,-1,exp1.png,1,exp1.png,exp2.png,1,3,reversed,correct,0.3266088538342389,1,valid_win,420.2194458995946,24,,,,,,,,,,,s_098,1,2022_Sep_05_1044,Reversal,3.2.4,60.00808917995923,
,,,2,0,2,0,,,,,0,0,0,0,,,,,,,,,,,,,,,,,,,,,,,,,,,,,,,,,,,,,,,,,,50.0,50.0,50.0,50.0,,,,,,,s_098,1,2022_Sep_05_1044,Reversal,3.2.4,60.00808917995923,
0,exp1.png,exp2.png,3,0,3,0,0,0,0,0,,,,,,,,,,,,,,,,,,,,,,,,,True,,,,,,,,,,,,,,,,,,,,,,,,,,,,,,,s_098,1,2022_Sep_05_1044,Reversal,3.2.4,60.00808917995923,
1,exp3.png,exp4.png,3,0,3,0,0,1,1,1,,,,,,,,,,,,,,,,,,,,,,,,,False,60,61,True,exp4.png,exp3.png,trial_right_image,-1,exp3.png,1,exp3.png,exp4.png,1,1,non-reversed,correct,0.6066378359458519,1,valid_win,435.24843889987096,25,,,,,,,,,,,s_098,1,2022_Sep_05_1044,Reversal,3.2.4,60.00808917995923,
2,exp1.png,exp2.png,3,0,3,0,0,2,2,2,,,,,,,,,,,,,,,,,,,,,,,,,False,61,62,False,exp1.png,exp2.png,trial_left_image,1,exp1.png,1,exp1.png,exp2.png,1,3,reversed,correct,0.8111900690333413,1,valid_win,440.88009849982336,26,,,,,,,,,,,s_098,1,2022_Sep_05_1044,Reversal,3.2.4,60.00808917995923,
3,exp3.png,exp4.png,3,0,3,0,0,3,3,3,,,,,,,,,,,,,,,,,,,,,,,,,False,62,63,True,exp4.png,exp3.png,trial_left_image,1,exp4.png,1,exp3.png,exp4.png,0,2,non-reversed,incorrect,0.8654435585905409,0,valid_lose,445.9446658999659,26,,,,,,,,,,,s_098,1,2022_Sep_05_1044,Reversal,3.2.4,60.00808917995923,
4,exp1.png,exp2.png,3,0,3,0,0,4,4,4,,,,,,,,,,,,,,,,,,,,,,,,,False,63,64,False,exp1.png,exp2.png,trial_right_image,-1,exp2.png,1,exp1.png,exp2.png,0,4,reversed,incorrect,0.3107654009640449,0,valid_lose,451.25903109973297,26,,,,,,,,,,,s_098,1,2022_Sep_05_1044,Reversal,3.2.4,60.00808917995923,
5,exp3.png,exp4.png,3,0,3,0,0,5,5,5,,,,,,,,,,,,,,,,,,,,,,,,,False,64,65,True,exp4.png,exp3.png,trial_right_image,-1,exp3.png,1,exp3.png,exp4.png,1,1,non-reversed,correct,0.15547571656176118,0,invalid_lose,456.6569771999493,26,,,,,,,,,,,s_098,1,2022_Sep_05_1044,Reversal,3.2.4,60.00808917995923,
6,exp1.png,exp2.png,3,0,3,0,0,6,6,6,,,,,,,,,,,,,,,,,,,,,,,,,False,65,66,True,exp2.png,exp1.png,trial_right_image,-1,exp1.png,1,exp1.png,exp2.png,1,3,reversed,correct,0.23933186418161234,0,invalid_lose,461.73911629989743,26,,,,,,,,,,,s_098,1,2022_Sep_05_1044,Reversal,3.2.4,60.00808917995923,
7,exp3.png,exp4.png,3,0,3,0,0,7,7,7,,,,,,,,,,,,,,,,,,,,,,,,,False,66,67,False,exp3.png,exp4.png,trial_right_image,-1,exp4.png,1,exp3.png,exp4.png,0,2,non-reversed,incorrect,0.8569231033539424,0,valid_lose,469.4366474999115,26,,,,,,,,,,,s_098,1,2022_Sep_05_1044,Reversal,3.2.4,60.00808917995923,
8,exp1.png,exp2.png,3,0,3,0,0,8,8,8,,,,,,,,,,,,,,,,,,,,,,,,,False,67,68,False,exp1.png,exp2.png,trial_left_image,1,exp1.png,1,exp1.png,exp2.png,1,3,reversed,correct,0.306630814782183,1,valid_win,474.78499039961025,27,,,,,,,,,,,s_098,1,2022_Sep_05_1044,Reversal,3.2.4,60.00808917995923,
9,exp3.png,exp4.png,3,0,3,0,0,9,9,9,,,,,,,,,,,,,,,,,,,,,,,,,False,68,69,True,exp4.png,exp3.png,trial_right_image,-1,exp3.png,1,exp3.png,exp4.png,1,1,non-reversed,correct,0.667397739201619,1,valid_win,481.7661842997186,28,,,,,,,,,,,s_098,1,2022_Sep_05_1044,Reversal,3.2.4,60.00808917995923,
10,exp1.png,exp2.png,3,0,3,0,0,10,10,10,,,,,,,,,,,,,,,,,,,,,,,,,False,69,70,True,exp2.png,exp1.png,trial_left_image,1,exp2.png,1,exp1.png,exp2.png,0,4,reversed,incorrect,0.09731939457235217,1,invalid_win,487.6135789998807,29,,,,,,,,,,,s_098,1,2022_Sep_05_1044,Reversal,3.2.4,60.00808917995923,
11,exp3.png,exp4.png,3,0,3,0,0,11,11,11,,,,,,,,,,,,,,,,,,,,,,,,,False,70,71,False,exp3.png,exp4.png,trial_right_image,-1,exp4.png,1,exp3.png,exp4.png,0,2,non-reversed,incorrect,0.43759806734843576,0,valid_lose,493.99511239957064,29,,,,,,,,,,,s_098,1,2022_Sep_05_1044,Reversal,3.2.4,60.00808917995923,
12,exp1.png,exp2.png,3,0,3,0,0,12,12,12,,,,,,,,,,,,,,,,,,,,,,,,,False,71,72,True,exp2.png,exp1.png,trial_left_image,1,exp2.png,1,exp1.png,exp2.png,0,4,reversed,incorrect,0.030180215222057938,1,invalid_win,505.22409769985825,30,,,,,,,,,,,s_098,1,2022_Sep_05_1044,Reversal,3.2.4,60.00808917995923,
13,exp3.png,exp4.png,3,0,3,0,0,13,13,13,,,,,,,,,,,,,,,,,,,,,,,,,False,72,73,True,exp4.png,exp3.png,trial_left_image,1,exp4.png,1,exp3.png,exp4.png,0,2,non-reversed,incorrect,0.11651649052257884,1,invalid_win,511.7558981999755,31,,,,,,,,,,,s_098,1,2022_Sep_05_1044,Reversal,3.2.4,60.00808917995923,
14,exp1.png,exp2.png,3,0,3,0,0,14,14,14,,,,,,,,,,,,,,,,,,,,,,,,,False,73,74,False,exp1.png,exp2.png,trial_right_image,-1,exp2.png,1,exp1.png,exp2.png,0,4,reversed,incorrect,0.8953355533659686,0,valid_lose,516.7215613997541,31,,,,,,,,,,,s_098,1,2022_Sep_05_1044,Reversal,3.2.4,60.00808917995923,
15,exp3.png,exp4.png,3,0,3,0,0,15,15,15,,,,,,,,,,,,,,,,,,,,,,,,,False,74,75,True,exp4.png,exp3.png,trial_right_image,-1,exp3.png,1,exp3.png,exp4.png,1,1,non-reversed,correct,0.054132258433664315,0,invalid_lose,521.7185112996958,31,,,,,,,,,,,s_098,1,2022_Sep_05_1044,Reversal,3.2.4,60.00808917995923,
16,exp1.png,exp2.png,3,0,3,0,0,16,16,16,,,,,,,,,,,,,,,,,,,,,,,,,False,75,76,False,exp1.png,exp2.png,trial_right_image,-1,exp2.png,1,exp1.png,exp2.png,0,4,reversed,incorrect,0.32267675435737686,0,valid_lose,531.1820808998309,31,,,,,,,,,,,s_098,1,2022_Sep_05_1044,Reversal,3.2.4,60.00808917995923,
17,exp3.png,exp4.png,3,0,3,0,0,17,17,17,,,,,,,,,,,,,,,,,,,,,,,,,False,76,77,False,exp3.png,exp4.png,trial_left_image,1,exp3.png,1,exp3.png,exp4.png,1,1,non-reversed,correct,0.38322413068147887,1,valid_win,536.34672209993,32,,,,,,,,,,,s_098,1,2022_Sep_05_1044,Reversal,3.2.4,60.00808917995923,
18,exp1.png,exp2.png,3,0,3,0,0,18,18,18,,,,,,,,,,,,,,,,,,,,,,,,,False,77,78,True,exp2.png,exp1.png,trial_right_image,-1,exp1.png,1,exp1.png,exp2.png,1,3,reversed,correct,0.9233417717076955,1,valid_win,541.0789222000167,33,,,,,,,,,,,s_098,1,2022_Sep_05_1044,Reversal,3.2.4,60.00808917995923,
19,exp3.png,exp4.png,3,0,3,0,0,19,19,19,,,,,,,,,,,,,,,,,,,,,,,,,False,78,79,False,exp3.png,exp4.png,trial_left_image,1,exp3.png,1,exp3.png,exp4.png,1,1,non-reversed,correct,0.09038682464999537,0,invalid_lose,547.6261676996946,33,,,,,,,,,,,s_098,1,2022_Sep_05_1044,Reversal,3.2.4,60.00808917995923,
20,exp1.png,exp2.png,3,0,3,0,0,20,20,20,,,,,,,,,,,,,,,,,,,,,,,,,False,79,80,False,exp1.png,exp2.png,trial_left_image,1,exp1.png,1,exp1.png,exp2.png,1,3,reversed,correct,0.33430724349381546,1,valid_win,555.7407964998856,34,,,,,,,,,,,s_098,1,2022_Sep_05_1044,Reversal,3.2.4,60.00808917995923,
,,,3,0,3,0,,,,,0,0,0,0,,,,,,,,,,,,,,,,,,,,,,,,,,,,,,,,,,,,,,,,,,34,70,50.0,46,,,,,,,s_098,1,2022_Sep_05_1044,Reversal,3.2.4,60.00808917995923,
0,exp1.png,exp2.png,,,,,,,,,,,,,,,,,0,0,0,0,0,0,0,0,,,,,,,,,True,,,,,,,,,,,,,,,,,,,,,,,,,,,,,,,s_098,1,2022_Sep_05_1044,Reversal,3.2.4,60.00808917995923,
1,exp3.png,exp4.png,,,,,,,,,,,,,,,,,0,0,0,0,0,1,1,1,,,,,,,,,False,0,81,True,exp4.png,exp3.png,trial_right_image,-1,exp3.png,1,exp3.png,exp4.png,1,1,non-reversed,correct,0.17585860406931642,0,invalid_lose,580.9824116998352,34,,,,,574.5013207998127,,,,,,s_098,1,2022_Sep_05_1044,Reversal,3.2.4,60.00808917995923,
2,exp1.png,exp2.png,,,,,,,,,,,,,,,,,0,0,0,0,0,2,2,2,,,,,,,,,False,1,82,False,exp1.png,exp2.png,trial_right_image,-1,exp2.png,1,exp2.png,exp1.png,0,4,reversed,correct,0.4458438689743448,1,valid_win,589.730006699916,35,,,,,,,,,,,s_098,1,2022_Sep_05_1044,Reversal,3.2.4,60.00808917995923,
3,exp3.png,exp4.png,,,,,,,,,,,,,,,,,0,0,0,0,0,3,3,3,,,,,,,,,False,2,83,True,exp4.png,exp3.png,trial_left_image,1,exp4.png,1,exp3.png,exp4.png,0,2,non-reversed,incorrect,0.026812207835150037,1,invalid_win,594.9272623998113,36,,,,,,,,,,,s_098,1,2022_Sep_05_1044,Reversal,3.2.4,60.00808917995923,
4,exp1.png,exp2.png,,,,,,,,,,,,,,,,,0,0,0,0,0,4,4,4,,,,,,,,,False,3,84,False,exp1.png,exp2.png,trial_right_image,-1,exp2.png,1,exp2.png,exp1.png,0,4,reversed,correct,0.3285141128025306,1,valid_win,600.8758895997889,37,,,,,,,,,,,s_098,1,2022_Sep_05_1044,Reversal,3.2.4,60.00808917995923,
5,exp3.png,exp4.png,,,,,,,,,,,,,,,,,0,0,0,0,0,5,5,5,,,,,,,,,False,4,85,True,exp4.png,exp3.png,trial_left_image,1,exp4.png,1,exp3.png,exp4.png,0,2,non-reversed,incorrect,0.11447269981449637,1,invalid_win,606.19066559989,38,,,,,,,,,,,s_098,1,2022_Sep_05_1044,Reversal,3.2.4,60.00808917995923,
6,exp1.png,exp2.png,,,,,,,,,,,,,,,,,0,0,0,0,0,6,6,6,,,,,,,,,False,5,86,False,exp1.png,exp2.png,trial_left_image,1,exp1.png,1,exp2.png,exp1.png,1,3,reversed,incorrect,0.11899398667174033,1,invalid_win,611.0387035999447,39,,,,,,,,,,,s_098,1,2022_Sep_05_1044,Reversal,3.2.4,60.00808917995923,
7,exp3.png,exp4.png,,,,,,,,,,,,,,,,,0,0,0,0,0,7,7,7,,,,,,,,,False,6,87,False,exp3.png,exp4.png,trial_right_image,-1,exp4.png,1,exp3.png,exp4.png,0,2,non-reversed,incorrect,0.8447438246600684,0,valid_lose,616.4532402995974,39,,,,,,,,,,,s_098,1,2022_Sep_05_1044,Reversal,3.2.4,60.00808917995923,
8,exp1.png,exp2.png,,,,,,,,,,,,,,,,,0,0,0,0,0,8,8,8,,,,,,,,,False,7,88,False,exp1.png,exp2.png,trial_right_image,-1,exp2.png,1,exp2.png,exp1.png,0,4,reversed,correct,0.7579855644803669,1,valid_win,620.9519289997406,40,,,,,,,,,,,s_098,1,2022_Sep_05_1044,Reversal,3.2.4,60.00808917995923,
9,exp3.png,exp4.png,,,,,,,,,,,,,,,,,0,0,0,0,0,9,9,9,,,,,,,,,False,8,89,True,exp4.png,exp3.png,trial_right_image,-1,exp3.png,1,exp3.png,exp4.png,1,1,non-reversed,correct,0.9556241156229488,1,valid_win,627.2498398995958,41,,,,,,,,,,,s_098,1,2022_Sep_05_1044,Reversal,3.2.4,60.00808917995923,
10,exp1.png,exp2.png,,,,,,,,,,,,,,,,,0,0,0,0,0,10,10,10,,,,,,,,,False,9,90,True,exp2.png,exp1.png,trial_right_image,-1,exp1.png,1,exp2.png,exp1.png,1,3,reversed,incorrect,0.12075609044958491,1,invalid_win,635.0464278999716,42,,,,,,,,,,,s_098,1,2022_Sep_05_1044,Reversal,3.2.4,60.00808917995923,
11,exp3.png,exp4.png,,,,,,,,,,,,,,,,,0,0,0,0,0,11,11,11,,,,,,,,,False,10,91,False,exp3.png,exp4.png,trial_right_image,-1,exp4.png,1,exp3.png,exp4.png,0,2,non-reversed,incorrect,0.20194272521345202,1,invalid_win,640.7112516998313,43,,,,,,,,,,,s_098,1,2022_Sep_05_1044,Reversal,3.2.4,60.00808917995923,
12,exp1.png,exp2.png,,,,,,,,,,,,,,,,,0,0,0,0,0,12,12,12,,,,,,,,,False,11,92,False,exp1.png,exp2.png,trial_right_image,-1,exp2.png,1,exp2.png,exp1.png,0,4,reversed,correct,0.09343469265923565,0,invalid_lose,646.3611099999398,43,,,,,,,,,,,s_098,1,2022_Sep_05_1044,Reversal,3.2.4,60.00808917995923,
13,exp3.png,exp4.png,,,,,,,,,,,,,,,,,0,0,0,0,0,13,13,13,,,,,,,,,False,12,93,True,exp4.png,exp3.png,trial_right_image,-1,exp3.png,1,exp3.png,exp4.png,1,1,non-reversed,correct,0.6645740175190196,1,valid_win,651.7916513998061,44,,,,,,,,,,,s_098,1,2022_Sep_05_1044,Reversal,3.2.4,60.00808917995923,
14,exp1.png,exp2.png,,,,,,,,,,,,,,,,,0,0,0,0,0,14,14,14,,,,,,,,,False,13,94,False,exp1.png,exp2.png,trial_left_image,1,exp1.png,1,exp2.png,exp1.png,1,3,reversed,incorrect,0.9060528920088469,0,valid_lose,657.3060164996423,44,,,,,,,,,,,s_098,1,2022_Sep_05_1044,Reversal,3.2.4,60.00808917995923,
15,exp3.png,exp4.png,,,,,,,,,,,,,,,,,0,0,0,0,0,15,15,15,,,,,,,,,False,14,95,True,exp4.png,exp3.png,trial_left_image,1,exp4.png,1,exp3.png,exp4.png,0,2,non-reversed,incorrect,0.9441581432792304,0,valid_lose,663.4050394999795,44,,,,,,,,,,,s_098,1,2022_Sep_05_1044,Reversal,3.2.4,60.00808917995923,
16,exp1.png,exp2.png,,,,,,,,,,,,,,,,,0,0,0,0,0,16,16,16,,,,,,,,,False,15,96,True,exp2.png,exp1.png,trial_left_image,1,exp2.png,1,exp2.png,exp1.png,0,4,reversed,correct,0.3573876927411356,1,valid_win,669.6355972997844,45,,,,,,,,,,,s_098,1,2022_Sep_05_1044,Reversal,3.2.4,60.00808917995923,
17,exp3.png,exp4.png,,,,,,,,,,,,,,,,,0,0,0,0,0,17,17,17,,,,,,,,,False,16,97,False,exp3.png,exp4.png,trial_left_image,1,exp3.png,1,exp3.png,exp4.png,1,1,non-reversed,correct,0.5332080594946299,1,valid_win,675.6998610999435,46,,,,,,,,,,,s_098,1,2022_Sep_05_1044,Reversal,3.2.4,60.00808917995923,
18,exp1.png,exp2.png,,,,,,,,,,,,,,,,,0,0,0,0,0,18,18,18,,,,,,,,,False,17,98,True,exp2.png,exp1.png,trial_left_image,1,exp2.png,1,exp2.png,exp1.png,0,4,reversed,correct,0.9363600965247133,1,valid_win,681.448047499638,47,,,,,,,,,,,s_098,1,2022_Sep_05_1044,Reversal,3.2.4,60.00808917995923,
19,exp3.png,exp4.png,,,,,,,,,,,,,,,,,0,0,0,0,0,19,19,19,,,,,,,,,False,18,99,False,exp3.png,exp4.png,trial_left_image,1,exp3.png,1,exp3.png,exp4.png,1,1,non-reversed,correct,0.22682383866698608,0,invalid_lose,687.5804997999221,47,,,,,,,,,,,s_098,1,2022_Sep_05_1044,Reversal,3.2.4,60.00808917995923,
20,exp1.png,exp2.png,,,,,,,,,,,,,,,,,0,0,0,0,0,20,20,20,,,,,,,,,False,19,100,True,exp2.png,exp1.png,trial_left_image,1,exp2.png,1,exp2.png,exp1.png,0,4,reversed,correct,0.9340558782984124,1,valid_win,693.7614869996905,48,,,,,,,,,,,s_098,1,2022_Sep_05_1044,Reversal,3.2.4,60.00808917995923,
,,,,,,,,,,,,,,,,,,,0,0,0,0,,,,,0,0,0,0,,,,,,,,,,,,,,,,,,,,,,,,,,41,66,57,50.0,,,,,,,s_098,1,2022_Sep_05_1044,Reversal,3.2.4,60.00808917995923,
0,exp1.png,exp2.png,,,,,,,,,,,,,,,,,1,0,1,0,0,0,0,0,,,,,,,,,True,,,,,,,,,,,,,,,,,,,,,,,,,,,,,,,s_098,1,2022_Sep_05_1044,Reversal,3.2.4,60.00808917995923,
1,exp3.png,exp4.png,,,,,,,,,,,,,,,,,1,0,1,0,0,1,1,1,,,,,,,,,False,20,101,True,exp4.png,exp3.png,trial_right_image,-1,exp3.png,1,exp3.png,exp4.png,1,1,non-reversed,correct,0.8498057112486275,1,valid_win,718.2858105995692,49,,,,,,,,,,,s_098,1,2022_Sep_05_1044,Reversal,3.2.4,60.00808917995923,
2,exp1.png,exp2.png,,,,,,,,,,,,,,,,,1,0,1,0,0,2,2,2,,,,,,,,,False,21,102,True,exp2.png,exp1.png,trial_left_image,1,exp2.png,1,exp2.png,exp1.png,0,4,reversed,correct,0.3771652772888785,1,valid_win,723.9007469997741,50,,,,,,,,,,,s_098,1,2022_Sep_05_1044,Reversal,3.2.4,60.00808917995923,
3,exp3.png,exp4.png,,,,,,,,,,,,,,,,,1,0,1,0,0,3,3,3,,,,,,,,,False,22,103,True,exp4.png,exp3.png,trial_right_image,-1,exp3.png,1,exp3.png,exp4.png,1,1,non-reversed,correct,0.923677736602697,1,valid_win,733.2800435000099,51,,,,,,,,,,,s_098,1,2022_Sep_05_1044,Reversal,3.2.4,60.00808917995923,
4,exp1.png,exp2.png,,,,,,,,,,,,,,,,,1,0,1,0,0,4,4,4,,,,,,,,,False,23,104,False,exp1.png,exp2.png,trial_right_image,-1,exp2.png,1,exp2.png,exp1.png,0,4,reversed,correct,0.17762691228304994,0,invalid_lose,738.7121415999718,51,,,,,,,,,,,s_098,1,2022_Sep_05_1044,Reversal,3.2.4,60.00808917995923,
5,exp3.png,exp4.png,,,,,,,,,,,,,,,,,1,0,1,0,0,5,5,5,,,,,,,,,False,24,105,True,exp4.png,exp3.png,trial_right_image,-1,exp3.png,1,exp3.png,exp4.png,1,1,non-reversed,correct,0.036634431293894765,0,invalid_lose,744.4101370996796,51,,,,,,,,,,,s_098,1,2022_Sep_05_1044,Reversal,3.2.4,60.00808917995923,
6,exp1.png,exp2.png,,,,,,,,,,,,,,,,,1,0,1,0,0,6,6,6,,,,,,,,,False,25,106,False,exp1.png,exp2.png,trial_left_image,1,exp1.png,1,exp2.png,exp1.png,1,3,reversed,incorrect,0.6324470931835388,0,valid_lose,749.2090423000045,51,,,,,,,,,,,s_098,1,2022_Sep_05_1044,Reversal,3.2.4,60.00808917995923,
7,exp3.png,exp4.png,,,,,,,,,,,,,,,,,1,0,1,0,0,7,7,7,,,,,,,,,False,26,107,True,exp4.png,exp3.png,trial_right_image,-1,exp3.png,1,exp3.png,exp4.png,1,1,non-reversed,correct,0.8839128266449715,1,valid_win,757.4890904999338,52,,,,,,,,,,,s_098,1,2022_Sep_05_1044,Reversal,3.2.4,60.00808917995923,
8,exp1.png,exp2.png,,,,,,,,,,,,,,,,,1,0,1,0,0,8,8,8,,,,,,,,,False,27,108,False,exp1.png,exp2.png,trial_right_image,-1,exp2.png,1,exp2.png,exp1.png,0,4,reversed,correct,0.11187256167913551,0,invalid_lose,763.3870575996116,52,,,,,,,,,,,s_098,1,2022_Sep_05_1044,Reversal,3.2.4,60.00808917995923,
9,exp3.png,exp4.png,,,,,,,,,,,,,,,,,1,0,1,0,0,9,9,9,,,,,,,,,False,28,109,False,exp3.png,exp4.png,trial_left_image,1,exp3.png,1,exp3.png,exp4.png,1,1,non-reversed,correct,0.3808170528601771,1,valid_win,768.8360625999048,53,,,,,,,,,,,s_098,1,2022_Sep_05_1044,Reversal,3.2.4,60.00808917995923,
10,exp1.png,exp2.png,,,,,,,,,,,,,,,,,1,0,1,0,0,10,10,10,,,,,,,,,False,29,110,False,exp1.png,exp2.png,trial_left_image,1,exp1.png,1,exp2.png,exp1.png,1,3,reversed,incorrect,0.9345431185988327,0,valid_lose,774.5659135999158,53,,,,,,,,,,,s_098,1,2022_Sep_05_1044,Reversal,3.2.4,60.00808917995923,
11,exp3.png,exp4.png,,,,,,,,,,,,,,,,,1,0,1,0,0,11,11,11,,,,,,,,,False,30,111,False,exp3.png,exp4.png,trial_right_image,-1,exp4.png,1,exp3.png,exp4.png,0,2,non-reversed,incorrect,0.17807406699981088,1,invalid_win,780.4146808995865,54,,,,,,,,,,,s_098,1,2022_Sep_05_1044,Reversal,3.2.4,60.00808917995923,
12,exp1.png,exp2.png,,,,,,,,,,,,,,,,,1,0,1,0,0,12,12,12,,,,,,,,,False,31,112,True,exp2.png,exp1.png,trial_right_image,-1,exp1.png,1,exp2.png,exp1.png,1,3,reversed,incorrect,0.5031490233692468,0,valid_lose,791.960688599851,54,,,,,,,,,,,s_098,1,2022_Sep_05_1044,Reversal,3.2.4,60.00808917995923,
13,exp3.png,exp4.png,,,,,,,,,,,,,,,,,1,0,1,0,0,13,13,13,,,,,,,,,False,32,113,False,exp3.png,exp4.png,trial_right_image,-1,exp4.png,1,exp3.png,exp4.png,0,2,non-reversed,incorrect,0.599420946751461,0,valid_lose,797.1422267998569,54,,,,,,,,,,,s_098,1,2022_Sep_05_1044,Reversal,3.2.4,60.00808917995923,
14,exp1.png,exp2.png,,,,,,,,,,,,,,,,,1,0,1,0,0,14,14,14,,,,,,,,,False,33,114,False,exp1.png,exp2.png,trial_right_image,-1,exp2.png,1,exp2.png,exp1.png,0,4,reversed,correct,0.4006117098850811,1,valid_win,802.8403099998832,55,,,,,,,,,,,s_098,1,2022_Sep_05_1044,Reversal,3.2.4,60.00808917995923,
15,exp3.png,exp4.png,,,,,,,,,,,,,,,,,1,0,1,0,0,15,15,15,,,,,,,,,False,34,115,True,exp4.png,exp3.png,trial_right_image,-1,exp3.png,1,exp3.png,exp4.png,1,1,non-reversed,correct,0.6403141454149419,1,valid_win,807.2717605996877,56,,,,,,,,,,,s_098,1,2022_Sep_05_1044,Reversal,3.2.4,60.00808917995923,
16,exp1.png,exp2.png,,,,,,,,,,,,,,,,,1,0,1,0,0,16,16,16,,,,,,,,,False,35,116,True,exp2.png,exp1.png,trial_right_image,-1,exp1.png,1,exp2.png,exp1.png,1,3,reversed,incorrect,0.06559971662383235,1,invalid_win,812.9705759999342,57,,,,,,,,,,,s_098,1,2022_Sep_05_1044,Reversal,3.2.4,60.00808917995923,
17,exp3.png,exp4.png,,,,,,,,,,,,,,,,,1,0,1,0,0,17,17,17,,,,,,,,,False,36,117,False,exp3.png,exp4.png,trial_left_image,1,exp3.png,1,exp3.png,exp4.png,1,1,non-reversed,correct,0.06887378637240926,0,invalid_lose,820.8675259999,57,,,,,,,,,,,s_098,1,2022_Sep_05_1044,Reversal,3.2.4,60.00808917995923,
18,exp1.png,exp2.png,,,,,,,,,,,,,,,,,1,0,1,0,0,18,18,18,,,,,,,,,False,37,118,True,exp2.png,exp1.png,trial_left_image,1,exp2.png,1,exp2.png,exp1.png,0,4,reversed,correct,0.693949327830535,1,valid_win,829.0639088996686,58,,,,,,,,,,,s_098,1,2022_Sep_05_1044,Reversal,3.2.4,60.00808917995923,
19,exp3.png,exp4.png,,,,,,,,,,,,,,,,,1,0,1,0,0,19,19,19,,,,,,,,,False,38,119,False,exp3.png,exp4.png,trial_left_image,1,exp3.png,1,exp3.png,exp4.png,1,1,non-reversed,correct,0.5743205467809636,1,valid_win,836.0963983996771,59,,,,,,,,,,,s_098,1,2022_Sep_05_1044,Reversal,3.2.4,60.00808917995923,
20,exp1.png,exp2.png,,,,,,,,,,,,,,,,,1,0,1,0,0,20,20,20,,,,,,,,,False,39,120,True,exp2.png,exp1.png,trial_left_image,1,exp2.png,1,exp2.png,exp1.png,0,4,reversed,correct,0.6242628720960245,1,valid_win,841.693875500001,60,,,,,,,,,,,s_098,1,2022_Sep_05_1044,Reversal,3.2.4,60.00808917995923,
,,,,,,,,,,,,,,,,,,,1,0,1,0,,,,,0,0,0,0,,,,,,,,,,,,,,,,,,,,,,,,,,36,66,72,37,,,,,,,s_098,1,2022_Sep_05_1044,Reversal,3.2.4,60.00808917995923,
0,exp1.png,exp2.png,,,,,,,,,,,,,,,,,2,0,2,0,0,0,0,0,,,,,,,,,True,,,,,,,,,,,,,,,,,,,,,,,,,,,,,,,s_098,1,2022_Sep_05_1044,Reversal,3.2.4,60.00808917995923,
1,exp3.png,exp4.png,,,,,,,,,,,,,,,,,2,0,2,0,0,1,1,1,,,,,,,,,False,40,121,True,exp4.png,exp3.png,trial_right_image,-1,exp3.png,1,exp3.png,exp4.png,1,1,non-reversed,correct,0.03018332047524408,0,invalid_lose,862.4535723999143,60,,,,,,,,,,,s_098,1,2022_Sep_05_1044,Reversal,3.2.4,60.00808917995923,
2,exp1.png,exp2.png,,,,,,,,,,,,,,,,,2,0,2,0,0,2,2,2,,,,,,,,,False,41,122,False,exp1.png,exp2.png,trial_right_image,-1,exp2.png,1,exp2.png,exp1.png,0,4,reversed,correct,0.6423564623480496,1,valid_win,867.6357625997625,61,,,,,,,,,,,s_098,1,2022_Sep_05_1044,Reversal,3.2.4,60.00808917995923,
3,exp3.png,exp4.png,,,,,,,,,,,,,,,,,2,0,2,0,0,3,3,3,,,,,,,,,False,42,123,False,exp3.png,exp4.png,trial_right_image,-1,exp4.png,1,exp3.png,exp4.png,0,2,non-reversed,incorrect,0.6069600747209017,0,valid_lose,872.2667880998924,61,,,,,,,,,,,s_098,1,2022_Sep_05_1044,Reversal,3.2.4,60.00808917995923,
4,exp1.png,exp2.png,,,,,,,,,,,,,,,,,2,0,2,0,0,4,4,4,,,,,,,,,False,43,124,False,exp1.png,exp2.png,trial_left_image,1,exp1.png,1,exp2.png,exp1.png,1,3,reversed,incorrect,0.5973064015058931,0,valid_lose,877.7158378995955,61,,,,,,,,,,,s_098,1,2022_Sep_05_1044,Reversal,3.2.4,60.00808917995923,
5,exp3.png,exp4.png,,,,,,,,,,,,,,,,,2,0,2,0,0,5,5,5,,,,,,,,,False,44,125,True,exp4.png,exp3.png,trial_right_image,-1,exp3.png,1,exp3.png,exp4.png,1,1,non-reversed,correct,0.02636624588615777,0,invalid_lose,882.8133164998144,61,,,,,,,,,,,s_098,1,2022_Sep_05_1044,Reversal,3.2.4,60.00808917995923,
6,exp1.png,exp2.png,,,,,,,,,,,,,,,,,2,0,2,0,0,6,6,6,,,,,,,,,False,45,126,True,exp2.png,exp1.png,trial_left_image,1,exp2.png,1,exp2.png,exp1.png,0,4,reversed,correct,0.41916775120842487,1,valid_win,888.1442869999446,62,,,,,,,,,,,s_098,1,2022_Sep_05_1044,Reversal,3.2.4,60.00808917995923,
7,exp3.png,exp4.png,,,,,,,,,,,,,,,,,2,0,2,0,0,7,7,7,,,,,,,,,False,46,127,False,exp3.png,exp4.png,trial_right_image,-1,exp4.png,1,exp3.png,exp4.png,0,2,non-reversed,incorrect,0.36227545411201745,0,valid_lose,892.9265303998254,62,,,,,,,,,,,s_098,1,2022_Sep_05_1044,Reversal,3.2.4,60.00808917995923,
8,exp1.png,exp2.png,,,,,,,,,,,,,,,,,2,0,2,0,0,8,8,8,,,,,,,,,False,47,128,False,exp1.png,exp2.png,trial_left_image,1,exp1.png,1,exp2.png,exp1.png,1,3,reversed,incorrect,0.14866099083903261,1,invalid_win,899.3564331997186,63,,,,,,,,,,,s_098,1,2022_Sep_05_1044,Reversal,3.2.4,60.00808917995923,
9,exp3.png,exp4.png,,,,,,,,,,,,,,,,,2,0,2,0,0,9,9,9,,,,,,,,,False,48,129,True,exp4.png,exp3.png,trial_right_image,-1,exp3.png,1,exp3.png,exp4.png,1,1,non-reversed,correct,0.299634593335667,1,valid_win,905.8553525996394,64,,,,,,,,,,,s_098,1,2022_Sep_05_1044,Reversal,3.2.4,60.00808917995923,
10,exp1.png,exp2.png,,,,,,,,,,,,,,,,,2,0,2,0,0,10,10,10,,,,,,,,,False,49,130,False,exp1.png,exp2.png,trial_right_image,-1,exp2.png,1,exp2.png,exp1.png,0,4,reversed,correct,0.7938041057563902,1,valid_win,914.485995199997,65,,,,,,,,,,,s_098,1,2022_Sep_05_1044,Reversal,3.2.4,60.00808917995923,
11,exp3.png,exp4.png,,,,,,,,,,,,,,,,,2,0,2,0,0,11,11,11,,,,,,,,,False,50,131,True,exp4.png,exp3.png,trial_right_image,-1,exp3.png,1,exp3.png,exp4.png,1,1,non-reversed,correct,0.10585015681213239,0,invalid_lose,919.7841975996271,65,,,,,,,,,,,s_098,1,2022_Sep_05_1044,Reversal,3.2.4,60.00808917995923,
12,exp1.png,exp2.png,,,,,,,,,,,,,,,,,2,0,2,0,0,12,12,12,,,,,,,,,False,51,132,True,exp2.png,exp1.png,trial_left_image,1,exp2.png,1,exp2.png,exp1.png,0,4,reversed,correct,0.10690978216376101,0,invalid_lose,925.1150023997761,65,,,,,,,,,,,s_098,1,2022_Sep_05_1044,Reversal,3.2.4,60.00808917995923,
13,exp3.png,exp4.png,,,,,,,,,,,,,,,,,2,0,2,0,0,13,13,13,,,,,,,,,False,52,133,True,exp4.png,exp3.png,trial_left_image,1,exp4.png,1,exp3.png,exp4.png,0,2,non-reversed,incorrect,0.5180255408209431,0,valid_lose,929.8973946999758,65,,,,,,,,,,,s_098,1,2022_Sep_05_1044,Reversal,3.2.4,60.00808917995923,
14,exp1.png,exp2.png,,,,,,,,,,,,,,,,,2,0,2,0,0,14,14,14,,,,,,,,,False,53,134,True,exp2.png,exp1.png,trial_right_image,-1,exp1.png,1,exp2.png,exp1.png,1,3,reversed,incorrect,0.1277210059887406,1,invalid_win,936.1125266999006,66,,,,,,,,,,,s_098,1,2022_Sep_05_1044,Reversal,3.2.4,60.00808917995923,
15,exp3.png,exp4.png,,,,,,,,,,,,,,,,,2,0,2,0,0,15,15,15,,,,,,,,,False,54,135,True,exp4.png,exp3.png,trial_right_image,-1,exp3.png,1,exp3.png,exp4.png,1,1,non-reversed,correct,0.708441118554447,1,valid_win,942.4593849997036,67,,,,,,,,,,,s_098,1,2022_Sep_05_1044,Reversal,3.2.4,60.00808917995923,
16,exp1.png,exp2.png,,,,,,,,,,,,,,,,,2,0,2,0,0,16,16,16,,,,,,,,,False,55,136,False,exp1.png,exp2.png,trial_right_image,-1,exp2.png,1,exp2.png,exp1.png,0,4,reversed,correct,0.35263625791461284,1,valid_win,952.8397478000261,68,,,,,,,,,,,s_098,1,2022_Sep_05_1044,Reversal,3.2.4,60.00808917995923,
17,exp3.png,exp4.png,,,,,,,,,,,,,,,,,2,0,2,0,0,17,17,17,,,,,,,,,False,56,137,False,exp3.png,exp4.png,trial_right_image,-1,exp4.png,1,exp3.png,exp4.png,0,2,non-reversed,incorrect,0.19477501537264486,1,invalid_win,958.0374972997233,69,,,,,,,,,,,s_098,1,2022_Sep_05_1044,Reversal,3.2.4,60.00808917995923,
18,exp1.png,exp2.png,,,,,,,,,,,,,,,,,2,0,2,0,0,18,18,18,,,,,,,,,False,57,138,False,exp1.png,exp2.png,trial_right_image,-1,exp2.png,1,exp2.png,exp1.png,0,4,reversed,correct,0.30723882834547045,1,valid_win,964.1188368997537,70,,,,,,,,,,,s_098,1,2022_Sep_05_1044,Reversal,3.2.4,60.00808917995923,
19,exp3.png,exp4.png,,,,,,,,,,,,,,,,,2,0,2,0,0,19,19,19,,,,,,,,,False,58,139,True,exp4.png,exp3.png,trial_left_image,1,exp4.png,1,exp3.png,exp4.png,0,2,non-reversed,incorrect,0.48874574166761564,0,valid_lose,969.23444439983,70,,,,,,,,,,,s_098,1,2022_Sep_05_1044,Reversal,3.2.4,60.00808917995923,
20,exp1.png,exp2.png,,,,,,,,,,,,,,,,,2,0,2,0,0,20,20,20,,,,,,,,,False,59,140,False,exp1.png,exp2.png,trial_left_image,1,exp1.png,1,exp2.png,exp1.png,1,3,reversed,incorrect,0.4284489439580589,0,valid_lose,975.1823462997563,70,,,,,,,,,,,s_098,1,2022_Sep_05_1044,Reversal,3.2.4,60.00808917995923,
,,,,,,,,,,,,,,,,,,,2,0,2,0,,,,,0,0,0,0,,,,,,,,,,,,,,,,,,,,,,,,,,37,67,59,39,,,,,,,s_098,1,2022_Sep_05_1044,Reversal,3.2.4,60.00808917995923,
,,,,,,,,,,,,,,,,,,,,,,,,,,,,,,,,,,,,,,,,,,,,,,,,,,,,,,,70,,,,,,76,39,37,420.8719362998381,1,,,,,,,
