trial_index,trial_image1_file,trial_image2_file,learning_outer_loop.thisRepN,learning_outer_loop.thisTrialN,learning_outer_loop.thisN,learning_outer_loop.thisIndex,learning_inner_loop.thisRepN,learning_inner_loop.thisTrialN,learning_inner_loop.thisN,learning_inner_loop.thisIndex,learning_estimation_outer_loop.thisRepN,learning_estimation_outer_loop.thisTrialN,learning_estimation_outer_loop.thisN,learning_estimation_outer_loop.thisIndex,learning_estimation_inner_loop.thisRepN,learning_estimation_inner_loop.thisTrialN,learning_estimation_inner_loop.thisN,learning_estimation_inner_loop.thisIndex,reversal_outer_loop.thisRepN,reversal_outer_loop.thisTrialN,reversal_outer_loop.thisN,reversal_outer_loop.thisIndex,reversal_inner_loop.thisRepN,reversal_inner_loop.thisTrialN,reversal_inner_loop.thisN,reversal_inner_loop.thisIndex,reversal_estimation_outer_loop.thisRepN,reversal_estimation_outer_loop.thisTrialN,reversal_estimation_outer_loop.thisN,reversal_estimation_outer_loop.thisIndex,reversal_estimation_inner_loop.thisRepN,reversal_estimation_inner_loop.thisTrialN,reversal_estimation_inner_loop.thisN,reversal_estimation_inner_loop.thisIndex,skipped,total_trial_counter,trial_num,left_right_flip,left_image_file,right_image_file,clicked_stimulus_side,side,clicked_stimulus,version,high_prob_image_file,low_prob_image_file,choice_a,choice_b,pair_type,correct,trial_feedback_random,reward,trial_type,overall_time_after_trial,score,estimation_exp1.png,estimation_exp2.png,estimation_exp3.png,estimation_exp4.png,total_learning_time,total_correct,learning_correct,reversal_correct,total_reversal_time,extra_block,participant,ver,date,expName,psychopyVersion,frameRate,
0,exp1.png,exp2.png,0,0,0,0,0,0,0,0,,,,,,,,,,,,,,,,,,,,,,,,,True,,,,,,,,,,,,,,,,,,,,,,,,,,,,,,,s_090,1,2022_Jul_11_1129,Reversal,3.2.4,60.057967916596276,
1,exp3.png,exp4.png,0,0,0,0,0,1,1,1,,,,,,,,,,,,,,,,,,,,,,,,,False,0,1,False,exp3.png,exp4.png,trial_right_image,-1,exp4.png,1,exp3.png,exp4.png,0,2,non-reversed,incorrect,0.5857518005847192,0,valid_lose,4.394216400105506,0,,,,,,,,,,,s_090,1,2022_Jul_11_1129,Reversal,3.2.4,60.057967916596276,
2,exp1.png,exp2.png,0,0,0,0,0,2,2,2,,,,,,,,,,,,,,,,,,,,,,,,,False,1,2,True,exp2.png,exp1.png,trial_right_image,-1,exp1.png,1,exp1.png,exp2.png,1,3,reversed,correct,0.9772718976673782,1,valid_win,10.292918699793518,1,,,,,,,,,,,s_090,1,2022_Jul_11_1129,Reversal,3.2.4,60.057967916596276,
3,exp3.png,exp4.png,0,0,0,0,0,3,3,3,,,,,,,,,,,,,,,,,,,,,,,,,False,2,3,False,exp3.png,exp4.png,trial_left_image,1,exp3.png,1,exp3.png,exp4.png,1,1,non-reversed,correct,0.6086509998907567,1,valid_win,20.089242999907583,2,,,,,,,,,,,s_090,1,2022_Jul_11_1129,Reversal,3.2.4,60.057967916596276,
4,exp1.png,exp2.png,0,0,0,0,0,4,4,4,,,,,,,,,,,,,,,,,,,,,,,,,False,3,4,True,exp2.png,exp1.png,trial_right_image,-1,exp1.png,1,exp1.png,exp2.png,1,3,reversed,correct,0.23632048274047268,0,invalid_lose,25.754161200020462,2,,,,,,,,,,,s_090,1,2022_Jul_11_1129,Reversal,3.2.4,60.057967916596276,
5,exp3.png,exp4.png,0,0,0,0,0,5,5,5,,,,,,,,,,,,,,,,,,,,,,,,,False,4,5,True,exp4.png,exp3.png,trial_right_image,-1,exp3.png,1,exp3.png,exp4.png,1,1,non-reversed,correct,0.8543550196861788,1,valid_win,30.752444100100547,3,,,,,,,,,,,s_090,1,2022_Jul_11_1129,Reversal,3.2.4,60.057967916596276,
6,exp1.png,exp2.png,0,0,0,0,0,6,6,6,,,,,,,,,,,,,,,,,,,,,,,,,False,5,6,True,exp2.png,exp1.png,trial_right_image,-1,exp1.png,1,exp1.png,exp2.png,1,3,reversed,correct,0.05011041207221356,0,invalid_lose,36.367757100146264,3,,,,,,,,,,,s_090,1,2022_Jul_11_1129,Reversal,3.2.4,60.057967916596276,
7,exp3.png,exp4.png,0,0,0,0,0,7,7,7,,,,,,,,,,,,,,,,,,,,,,,,,False,6,7,True,exp4.png,exp3.png,trial_right_image,-1,exp3.png,1,exp3.png,exp4.png,1,1,non-reversed,correct,0.4216012801758877,1,valid_win,41.18206299981102,4,,,,,,,,,,,s_090,1,2022_Jul_11_1129,Reversal,3.2.4,60.057967916596276,
8,exp1.png,exp2.png,0,0,0,0,0,8,8,8,,,,,,,,,,,,,,,,,,,,,,,,,False,7,8,True,exp2.png,exp1.png,trial_left_image,1,exp2.png,1,exp1.png,exp2.png,0,4,reversed,incorrect,0.5912030599490787,0,valid_lose,46.17986960010603,4,,,,,,,,,,,s_090,1,2022_Jul_11_1129,Reversal,3.2.4,60.057967916596276,
9,exp3.png,exp4.png,0,0,0,0,0,9,9,9,,,,,,,,,,,,,,,,,,,,,,,,,False,8,9,False,exp3.png,exp4.png,trial_left_image,1,exp3.png,1,exp3.png,exp4.png,1,1,non-reversed,correct,0.0842708168447015,0,invalid_lose,50.96275050006807,4,,,,,,,,,,,s_090,1,2022_Jul_11_1129,Reversal,3.2.4,60.057967916596276,
10,exp1.png,exp2.png,0,0,0,0,0,10,10,10,,,,,,,,,,,,,,,,,,,,,,,,,False,9,10,True,exp2.png,exp1.png,trial_left_image,1,exp2.png,1,exp1.png,exp2.png,0,4,reversed,incorrect,0.8662893850116028,0,valid_lose,56.34393640002236,4,,,,,,,,,,,s_090,1,2022_Jul_11_1129,Reversal,3.2.4,60.057967916596276,
11,exp3.png,exp4.png,0,0,0,0,0,11,11,11,,,,,,,,,,,,,,,,,,,,,,,,,False,10,11,False,exp3.png,exp4.png,trial_right_image,-1,exp4.png,1,exp3.png,exp4.png,0,2,non-reversed,incorrect,0.981832808177467,0,valid_lose,66.19039240013808,4,,,,,,,,,,,s_090,1,2022_Jul_11_1129,Reversal,3.2.4,60.057967916596276,
12,exp1.png,exp2.png,0,0,0,0,0,12,12,12,,,,,,,,,,,,,,,,,,,,,,,,,False,11,12,False,exp1.png,exp2.png,trial_right_image,-1,exp2.png,1,exp1.png,exp2.png,0,4,reversed,incorrect,0.27337336254783373,0,valid_lose,71.28822499979287,4,,,,,,,,,,,s_090,1,2022_Jul_11_1129,Reversal,3.2.4,60.057967916596276,
13,exp3.png,exp4.png,0,0,0,0,0,13,13,13,,,,,,,,,,,,,,,,,,,,,,,,,False,12,13,True,exp4.png,exp3.png,trial_right_image,-1,exp3.png,1,exp3.png,exp4.png,1,1,non-reversed,correct,0.4844241336179901,1,valid_win,75.78736050007865,5,,,,,,,,,,,s_090,1,2022_Jul_11_1129,Reversal,3.2.4,60.057967916596276,
14,exp1.png,exp2.png,0,0,0,0,0,14,14,14,,,,,,,,,,,,,,,,,,,,,,,,,False,13,14,False,exp1.png,exp2.png,trial_left_image,1,exp1.png,1,exp1.png,exp2.png,1,3,reversed,correct,0.36239982698358786,1,valid_win,81.2019187998958,6,,,,,,,,,,,s_090,1,2022_Jul_11_1129,Reversal,3.2.4,60.057967916596276,
15,exp3.png,exp4.png,0,0,0,0,0,15,15,15,,,,,,,,,,,,,,,,,,,,,,,,,False,14,15,False,exp3.png,exp4.png,trial_right_image,-1,exp4.png,1,exp3.png,exp4.png,0,2,non-reversed,incorrect,0.026533769400027607,1,invalid_win,87.43237610021606,7,,,,,,,,,,,s_090,1,2022_Jul_11_1129,Reversal,3.2.4,60.057967916596276,
16,exp1.png,exp2.png,0,0,0,0,0,16,16,16,,,,,,,,,,,,,,,,,,,,,,,,,False,15,16,False,exp1.png,exp2.png,trial_right_image,-1,exp2.png,1,exp1.png,exp2.png,0,4,reversed,incorrect,0.6954773476880348,0,valid_lose,92.61469049984589,7,,,,,,,,,,,s_090,1,2022_Jul_11_1129,Reversal,3.2.4,60.057967916596276,
17,exp3.png,exp4.png,0,0,0,0,0,17,17,17,,,,,,,,,,,,,,,,,,,,,,,,,False,16,17,True,exp4.png,exp3.png,trial_right_image,-1,exp3.png,1,exp3.png,exp4.png,1,1,non-reversed,correct,0.4280239639680312,1,valid_win,97.58052749978378,8,,,,,,,,,,,s_090,1,2022_Jul_11_1129,Reversal,3.2.4,60.057967916596276,
18,exp1.png,exp2.png,0,0,0,0,0,18,18,18,,,,,,,,,,,,,,,,,,,,,,,,,False,17,18,False,exp1.png,exp2.png,trial_left_image,1,exp1.png,1,exp1.png,exp2.png,1,3,reversed,correct,0.21647174165040817,0,invalid_lose,102.42795730009675,8,,,,,,,,,,,s_090,1,2022_Jul_11_1129,Reversal,3.2.4,60.057967916596276,
19,exp3.png,exp4.png,0,0,0,0,0,19,19,19,,,,,,,,,,,,,,,,,,,,,,,,,False,18,19,True,exp4.png,exp3.png,trial_left_image,1,exp4.png,1,exp3.png,exp4.png,0,2,non-reversed,incorrect,0.9134717647464359,0,valid_lose,108.24301270022988,8,,,,,,,,,,,s_090,1,2022_Jul_11_1129,Reversal,3.2.4,60.057967916596276,
20,exp1.png,exp2.png,0,0,0,0,0,20,20,20,,,,,,,,,,,,,,,,,,,,,,,,,False,19,20,False,exp1.png,exp2.png,trial_left_image,1,exp1.png,1,exp1.png,exp2.png,1,3,reversed,correct,0.08998707797729744,0,invalid_lose,128.4533644998446,8,,,,,,,,,,,s_090,1,2022_Jul_11_1129,Reversal,3.2.4,60.057967916596276,
,,,0,0,0,0,,,,,0,0,0,0,,,,,,,,,,,,,,,,,,,,,,,,,,,,,,,,,,,,,,,,,,50.0,28,82,40,,,,,,,s_090,1,2022_Jul_11_1129,Reversal,3.2.4,60.057967916596276,
0,exp1.png,exp2.png,1,0,1,0,0,0,0,0,,,,,,,,,,,,,,,,,,,,,,,,,True,,,,,,,,,,,,,,,,,,,,,,,,,,,,,,,s_090,1,2022_Jul_11_1129,Reversal,3.2.4,60.057967916596276,
1,exp3.png,exp4.png,1,0,1,0,0,1,1,1,,,,,,,,,,,,,,,,,,,,,,,,,False,20,21,False,exp3.png,exp4.png,trial_left_image,1,exp3.png,1,exp3.png,exp4.png,1,1,non-reversed,correct,0.029030520990165343,0,invalid_lose,150.81198190012947,8,,,,,,,,,,,s_090,1,2022_Jul_11_1129,Reversal,3.2.4,60.057967916596276,
2,exp1.png,exp2.png,1,0,1,0,0,2,2,2,,,,,,,,,,,,,,,,,,,,,,,,,False,21,22,True,exp2.png,exp1.png,trial_right_image,-1,exp1.png,1,exp1.png,exp2.png,1,3,reversed,correct,0.03226461402141456,0,invalid_lose,157.510481600184,8,,,,,,,,,,,s_090,1,2022_Jul_11_1129,Reversal,3.2.4,60.057967916596276,
3,exp3.png,exp4.png,1,0,1,0,0,3,3,3,,,,,,,,,,,,,,,,,,,,,,,,,False,22,23,True,exp4.png,exp3.png,trial_right_image,-1,exp3.png,1,exp3.png,exp4.png,1,1,non-reversed,correct,0.476506411626999,1,valid_win,161.79166379990056,9,,,,,,,,,,,s_090,1,2022_Jul_11_1129,Reversal,3.2.4,60.057967916596276,
4,exp1.png,exp2.png,1,0,1,0,0,4,4,4,,,,,,,,,,,,,,,,,,,,,,,,,False,23,24,False,exp1.png,exp2.png,trial_left_image,1,exp1.png,1,exp1.png,exp2.png,1,3,reversed,correct,0.5001664260586879,1,valid_win,165.85708220023662,10,,,,,,,,,,,s_090,1,2022_Jul_11_1129,Reversal,3.2.4,60.057967916596276,
5,exp3.png,exp4.png,1,0,1,0,0,5,5,5,,,,,,,,,,,,,,,,,,,,,,,,,False,24,25,False,exp3.png,exp4.png,trial_left_image,1,exp3.png,1,exp3.png,exp4.png,1,1,non-reversed,correct,0.38491104100720164,1,valid_win,169.8224069001153,11,,,,,,,,,,,s_090,1,2022_Jul_11_1129,Reversal,3.2.4,60.057967916596276,
6,exp1.png,exp2.png,1,0,1,0,0,6,6,6,,,,,,,,,,,,,,,,,,,,,,,,,False,25,26,False,exp1.png,exp2.png,trial_left_image,1,exp1.png,1,exp1.png,exp2.png,1,3,reversed,correct,0.10942238271739446,0,invalid_lose,173.98713660007343,11,,,,,,,,,,,s_090,1,2022_Jul_11_1129,Reversal,3.2.4,60.057967916596276,
7,exp3.png,exp4.png,1,0,1,0,0,7,7,7,,,,,,,,,,,,,,,,,,,,,,,,,False,26,27,True,exp4.png,exp3.png,trial_right_image,-1,exp3.png,1,exp3.png,exp4.png,1,1,non-reversed,correct,0.5546958111059238,1,valid_win,178.1200709999539,12,,,,,,,,,,,s_090,1,2022_Jul_11_1129,Reversal,3.2.4,60.057967916596276,
8,exp1.png,exp2.png,1,0,1,0,0,8,8,8,,,,,,,,,,,,,,,,,,,,,,,,,False,27,28,False,exp1.png,exp2.png,trial_left_image,1,exp1.png,1,exp1.png,exp2.png,1,3,reversed,correct,0.3377213436056423,1,valid_win,182.30208020005375,13,,,,,,,,,,,s_090,1,2022_Jul_11_1129,Reversal,3.2.4,60.057967916596276,
9,exp3.png,exp4.png,1,0,1,0,0,9,9,9,,,,,,,,,,,,,,,,,,,,,,,,,False,28,29,False,exp3.png,exp4.png,trial_left_image,1,exp3.png,1,exp3.png,exp4.png,1,1,non-reversed,correct,0.3499435140934366,1,valid_win,186.5668589998968,14,,,,,,,,,,,s_090,1,2022_Jul_11_1129,Reversal,3.2.4,60.057967916596276,
10,exp1.png,exp2.png,1,0,1,0,0,10,10,10,,,,,,,,,,,,,,,,,,,,,,,,,False,29,30,True,exp2.png,exp1.png,trial_right_image,-1,exp1.png,1,exp1.png,exp2.png,1,3,reversed,correct,0.022429309063539127,0,invalid_lose,190.73262719996274,14,,,,,,,,,,,s_090,1,2022_Jul_11_1129,Reversal,3.2.4,60.057967916596276,
11,exp3.png,exp4.png,1,0,1,0,0,11,11,11,,,,,,,,,,,,,,,,,,,,,,,,,False,30,31,False,exp3.png,exp4.png,trial_left_image,1,exp3.png,1,exp3.png,exp4.png,1,1,non-reversed,correct,0.2648799615327855,1,valid_win,195.24743499979377,15,,,,,,,,,,,s_090,1,2022_Jul_11_1129,Reversal,3.2.4,60.057967916596276,
12,exp1.png,exp2.png,1,0,1,0,0,12,12,12,,,,,,,,,,,,,,,,,,,,,,,,,False,31,32,True,exp2.png,exp1.png,trial_right_image,-1,exp1.png,1,exp1.png,exp2.png,1,3,reversed,correct,0.02780852887478391,0,invalid_lose,199.67850660020486,15,,,,,,,,,,,s_090,1,2022_Jul_11_1129,Reversal,3.2.4,60.057967916596276,
13,exp3.png,exp4.png,1,0,1,0,0,13,13,13,,,,,,,,,,,,,,,,,,,,,,,,,False,32,33,True,exp4.png,exp3.png,trial_right_image,-1,exp3.png,1,exp3.png,exp4.png,1,1,non-reversed,correct,0.7056757714744204,1,valid_win,203.92684650002047,16,,,,,,,,,,,s_090,1,2022_Jul_11_1129,Reversal,3.2.4,60.057967916596276,
14,exp1.png,exp2.png,1,0,1,0,0,14,14,14,,,,,,,,,,,,,,,,,,,,,,,,,False,33,34,True,exp2.png,exp1.png,trial_right_image,-1,exp1.png,1,exp1.png,exp2.png,1,3,reversed,correct,0.8097338928286003,1,valid_win,208.04289739998057,17,,,,,,,,,,,s_090,1,2022_Jul_11_1129,Reversal,3.2.4,60.057967916596276,
15,exp3.png,exp4.png,1,0,1,0,0,15,15,15,,,,,,,,,,,,,,,,,,,,,,,,,False,34,35,False,exp3.png,exp4.png,trial_left_image,1,exp3.png,1,exp3.png,exp4.png,1,1,non-reversed,correct,0.21542427220897298,0,invalid_lose,212.14173500007018,17,,,,,,,,,,,s_090,1,2022_Jul_11_1129,Reversal,3.2.4,60.057967916596276,
16,exp1.png,exp2.png,1,0,1,0,0,16,16,16,,,,,,,,,,,,,,,,,,,,,,,,,False,35,36,True,exp2.png,exp1.png,trial_right_image,-1,exp1.png,1,exp1.png,exp2.png,1,3,reversed,correct,0.9222513243577012,1,valid_win,216.02336970018223,18,,,,,,,,,,,s_090,1,2022_Jul_11_1129,Reversal,3.2.4,60.057967916596276,
17,exp3.png,exp4.png,1,0,1,0,0,17,17,17,,,,,,,,,,,,,,,,,,,,,,,,,False,36,37,False,exp3.png,exp4.png,trial_left_image,1,exp3.png,1,exp3.png,exp4.png,1,1,non-reversed,correct,0.7107234927045344,1,valid_win,219.90560820000246,19,,,,,,,,,,,s_090,1,2022_Jul_11_1129,Reversal,3.2.4,60.057967916596276,
18,exp1.png,exp2.png,1,0,1,0,0,18,18,18,,,,,,,,,,,,,,,,,,,,,,,,,False,37,38,False,exp1.png,exp2.png,trial_left_image,1,exp1.png,1,exp1.png,exp2.png,1,3,reversed,correct,0.10329889837890882,0,invalid_lose,224.0705853002146,19,,,,,,,,,,,s_090,1,2022_Jul_11_1129,Reversal,3.2.4,60.057967916596276,
19,exp3.png,exp4.png,1,0,1,0,0,19,19,19,,,,,,,,,,,,,,,,,,,,,,,,,False,38,39,True,exp4.png,exp3.png,trial_right_image,-1,exp3.png,1,exp3.png,exp4.png,1,1,non-reversed,correct,0.06664774118475592,0,invalid_lose,228.5035625998862,19,,,,,,,,,,,s_090,1,2022_Jul_11_1129,Reversal,3.2.4,60.057967916596276,
20,exp1.png,exp2.png,1,0,1,0,0,20,20,20,,,,,,,,,,,,,,,,,,,,,,,,,False,39,40,True,exp2.png,exp1.png,trial_left_image,1,exp2.png,1,exp1.png,exp2.png,0,4,reversed,incorrect,0.4414683701759927,0,valid_lose,233.65042079985142,19,,,,,,,,,,,s_090,1,2022_Jul_11_1129,Reversal,3.2.4,60.057967916596276,
,,,1,0,1,0,,,,,0,0,0,0,,,,,,,,,,,,,,,,,,,,,,,,,,,,,,,,,,,,,,,,,,50.0,50.0,85,50.0,,,,,,,s_090,1,2022_Jul_11_1129,Reversal,3.2.4,60.057967916596276,
0,exp1.png,exp2.png,2,0,2,0,0,0,0,0,,,,,,,,,,,,,,,,,,,,,,,,,True,,,,,,,,,,,,,,,,,,,,,,,,,,,,,,,s_090,1,2022_Jul_11_1129,Reversal,3.2.4,60.057967916596276,
1,exp3.png,exp4.png,2,0,2,0,0,1,1,1,,,,,,,,,,,,,,,,,,,,,,,,,False,40,41,False,exp3.png,exp4.png,trial_left_image,1,exp3.png,1,exp3.png,exp4.png,1,1,non-reversed,correct,0.9554647909907938,1,valid_win,249.66237210016698,20,,,,,,,,,,,s_090,1,2022_Jul_11_1129,Reversal,3.2.4,60.057967916596276,
2,exp1.png,exp2.png,2,0,2,0,0,2,2,2,,,,,,,,,,,,,,,,,,,,,,,,,False,41,42,True,exp2.png,exp1.png,trial_left_image,1,exp2.png,1,exp1.png,exp2.png,0,4,reversed,incorrect,0.7564225205061346,0,valid_lose,255.37665760004893,20,,,,,,,,,,,s_090,1,2022_Jul_11_1129,Reversal,3.2.4,60.057967916596276,
3,exp3.png,exp4.png,2,0,2,0,0,3,3,3,,,,,,,,,,,,,,,,,,,,,,,,,False,42,43,True,exp4.png,exp3.png,trial_right_image,-1,exp3.png,1,exp3.png,exp4.png,1,1,non-reversed,correct,0.29412831697627684,1,valid_win,259.6251497999765,21,,,,,,,,,,,s_090,1,2022_Jul_11_1129,Reversal,3.2.4,60.057967916596276,
4,exp1.png,exp2.png,2,0,2,0,0,4,4,4,,,,,,,,,,,,,,,,,,,,,,,,,False,43,44,True,exp2.png,exp1.png,trial_left_image,1,exp2.png,1,exp1.png,exp2.png,0,4,reversed,incorrect,0.06035073442886518,1,invalid_win,264.0230319998227,22,,,,,,,,,,,s_090,1,2022_Jul_11_1129,Reversal,3.2.4,60.057967916596276,
5,exp3.png,exp4.png,2,0,2,0,0,5,5,5,,,,,,,,,,,,,,,,,,,,,,,,,False,44,45,True,exp4.png,exp3.png,trial_right_image,-1,exp3.png,1,exp3.png,exp4.png,1,1,non-reversed,correct,0.4981646277225178,1,valid_win,268.17188079981133,23,,,,,,,,,,,s_090,1,2022_Jul_11_1129,Reversal,3.2.4,60.057967916596276,
6,exp1.png,exp2.png,2,0,2,0,0,6,6,6,,,,,,,,,,,,,,,,,,,,,,,,,False,45,46,True,exp2.png,exp1.png,trial_left_image,1,exp2.png,1,exp1.png,exp2.png,0,4,reversed,incorrect,0.01400574220499462,1,invalid_win,272.25496149994433,24,,,,,,,,,,,s_090,1,2022_Jul_11_1129,Reversal,3.2.4,60.057967916596276,
7,exp3.png,exp4.png,2,0,2,0,0,7,7,7,,,,,,,,,,,,,,,,,,,,,,,,,False,46,47,True,exp4.png,exp3.png,trial_right_image,-1,exp3.png,1,exp3.png,exp4.png,1,1,non-reversed,correct,0.593397190940349,1,valid_win,276.42067650007084,25,,,,,,,,,,,s_090,1,2022_Jul_11_1129,Reversal,3.2.4,60.057967916596276,
8,exp1.png,exp2.png,2,0,2,0,0,8,8,8,,,,,,,,,,,,,,,,,,,,,,,,,False,47,48,True,exp2.png,exp1.png,trial_left_image,1,exp2.png,1,exp1.png,exp2.png,0,4,reversed,incorrect,0.16402781329038085,1,invalid_win,280.33525429992005,26,,,,,,,,,,,s_090,1,2022_Jul_11_1129,Reversal,3.2.4,60.057967916596276,
9,exp3.png,exp4.png,2,0,2,0,0,9,9,9,,,,,,,,,,,,,,,,,,,,,,,,,False,48,49,True,exp4.png,exp3.png,trial_right_image,-1,exp3.png,1,exp3.png,exp4.png,1,1,non-reversed,correct,0.33893885229255427,1,valid_win,284.9500811002217,27,,,,,,,,,,,s_090,1,2022_Jul_11_1129,Reversal,3.2.4,60.057967916596276,
10,exp1.png,exp2.png,2,0,2,0,0,10,10,10,,,,,,,,,,,,,,,,,,,,,,,,,False,49,50,False,exp1.png,exp2.png,trial_right_image,-1,exp2.png,1,exp1.png,exp2.png,0,4,reversed,incorrect,0.33496311515823807,0,valid_lose,289.2986995000392,27,,,,,,,,,,,s_090,1,2022_Jul_11_1129,Reversal,3.2.4,60.057967916596276,
11,exp3.png,exp4.png,2,0,2,0,0,11,11,11,,,,,,,,,,,,,,,,,,,,,,,,,False,50,51,False,exp3.png,exp4.png,trial_left_image,1,exp3.png,1,exp3.png,exp4.png,1,1,non-reversed,correct,0.8025155954263112,1,valid_win,293.51378200016916,28,,,,,,,,,,,s_090,1,2022_Jul_11_1129,Reversal,3.2.4,60.057967916596276,
12,exp1.png,exp2.png,2,0,2,0,0,12,12,12,,,,,,,,,,,,,,,,,,,,,,,,,False,51,52,False,exp1.png,exp2.png,trial_right_image,-1,exp2.png,1,exp1.png,exp2.png,0,4,reversed,incorrect,0.7632216922570028,0,valid_lose,297.712384799961,28,,,,,,,,,,,s_090,1,2022_Jul_11_1129,Reversal,3.2.4,60.057967916596276,
13,exp3.png,exp4.png,2,0,2,0,0,13,13,13,,,,,,,,,,,,,,,,,,,,,,,,,False,52,53,False,exp3.png,exp4.png,trial_left_image,1,exp3.png,1,exp3.png,exp4.png,1,1,non-reversed,correct,0.5469692569937024,1,valid_win,301.8275847998448,29,,,,,,,,,,,s_090,1,2022_Jul_11_1129,Reversal,3.2.4,60.057967916596276,
14,exp1.png,exp2.png,2,0,2,0,0,14,14,14,,,,,,,,,,,,,,,,,,,,,,,,,False,53,54,False,exp1.png,exp2.png,trial_right_image,-1,exp2.png,1,exp1.png,exp2.png,0,4,reversed,incorrect,0.37802796753147716,0,valid_lose,306.09347790014,29,,,,,,,,,,,s_090,1,2022_Jul_11_1129,Reversal,3.2.4,60.057967916596276,
15,exp3.png,exp4.png,2,0,2,0,0,15,15,15,,,,,,,,,,,,,,,,,,,,,,,,,False,54,55,False,exp3.png,exp4.png,trial_left_image,1,exp3.png,1,exp3.png,exp4.png,1,1,non-reversed,correct,0.9331633847210615,1,valid_win,310.10907449992374,30,,,,,,,,,,,s_090,1,2022_Jul_11_1129,Reversal,3.2.4,60.057967916596276,
16,exp1.png,exp2.png,2,0,2,0,0,16,16,16,,,,,,,,,,,,,,,,,,,,,,,,,False,55,56,True,exp2.png,exp1.png,trial_left_image,1,exp2.png,1,exp1.png,exp2.png,0,4,reversed,incorrect,0.30585949264760226,0,valid_lose,314.97384920017794,30,,,,,,,,,,,s_090,1,2022_Jul_11_1129,Reversal,3.2.4,60.057967916596276,
17,exp3.png,exp4.png,2,0,2,0,0,17,17,17,,,,,,,,,,,,,,,,,,,,,,,,,False,56,57,True,exp4.png,exp3.png,trial_right_image,-1,exp3.png,1,exp3.png,exp4.png,1,1,non-reversed,correct,0.18213891968933305,0,invalid_lose,319.1715771998279,30,,,,,,,,,,,s_090,1,2022_Jul_11_1129,Reversal,3.2.4,60.057967916596276,
18,exp1.png,exp2.png,2,0,2,0,0,18,18,18,,,,,,,,,,,,,,,,,,,,,,,,,False,57,58,False,exp1.png,exp2.png,trial_right_image,-1,exp2.png,1,exp1.png,exp2.png,0,4,reversed,incorrect,0.7149459500335479,0,valid_lose,323.6041091000661,30,,,,,,,,,,,s_090,1,2022_Jul_11_1129,Reversal,3.2.4,60.057967916596276,
19,exp3.png,exp4.png,2,0,2,0,0,19,19,19,,,,,,,,,,,,,,,,,,,,,,,,,False,58,59,False,exp3.png,exp4.png,trial_left_image,1,exp3.png,1,exp3.png,exp4.png,1,1,non-reversed,correct,0.5756296520981532,1,valid_win,327.7860945998691,31,,,,,,,,,,,s_090,1,2022_Jul_11_1129,Reversal,3.2.4,60.057967916596276,
20,exp1.png,exp2.png,2,0,2,0,0,20,20,20,,,,,,,,,,,,,,,,,,,,,,,,,False,59,60,False,exp1.png,exp2.png,trial_right_image,-1,exp2.png,1,exp1.png,exp2.png,0,4,reversed,incorrect,0.08206244955274666,1,invalid_win,331.9848541999236,32,,,,,,,,,,,s_090,1,2022_Jul_11_1129,Reversal,3.2.4,60.057967916596276,
,,,2,0,2,0,,,,,0,0,0,0,,,,,,,,,,,,,,,,,,,,,,,,,,,,,,,,,,,,,,,,,,50.0,14,89,50.0,,,,,,,s_090,1,2022_Jul_11_1129,Reversal,3.2.4,60.057967916596276,
0,exp1.png,exp2.png,3,0,3,0,0,0,0,0,,,,,,,,,,,,,,,,,,,,,,,,,True,,,,,,,,,,,,,,,,,,,,,,,,,,,,,,,s_090,1,2022_Jul_11_1129,Reversal,3.2.4,60.057967916596276,
1,exp3.png,exp4.png,3,0,3,0,0,1,1,1,,,,,,,,,,,,,,,,,,,,,,,,,False,60,61,False,exp3.png,exp4.png,trial_left_image,1,exp3.png,1,exp3.png,exp4.png,1,1,non-reversed,correct,0.4498390191679863,1,valid_win,345.16371429990977,33,,,,,,,,,,,s_090,1,2022_Jul_11_1129,Reversal,3.2.4,60.057967916596276,
2,exp1.png,exp2.png,3,0,3,0,0,2,2,2,,,,,,,,,,,,,,,,,,,,,,,,,False,61,62,False,exp1.png,exp2.png,trial_left_image,1,exp1.png,1,exp1.png,exp2.png,1,3,reversed,correct,0.9545027191902598,1,valid_win,356.44298719987273,34,,,,,,,,,,,s_090,1,2022_Jul_11_1129,Reversal,3.2.4,60.057967916596276,
3,exp3.png,exp4.png,3,0,3,0,0,3,3,3,,,,,,,,,,,,,,,,,,,,,,,,,False,62,63,False,exp3.png,exp4.png,trial_left_image,1,exp3.png,1,exp3.png,exp4.png,1,1,non-reversed,correct,0.810167420895517,1,valid_win,360.49232480023056,35,,,,,,,,,,,s_090,1,2022_Jul_11_1129,Reversal,3.2.4,60.057967916596276,
4,exp1.png,exp2.png,3,0,3,0,0,4,4,4,,,,,,,,,,,,,,,,,,,,,,,,,False,63,64,True,exp2.png,exp1.png,trial_right_image,-1,exp1.png,1,exp1.png,exp2.png,1,3,reversed,correct,0.27229476534936736,1,valid_win,365.15661580022424,36,,,,,,,,,,,s_090,1,2022_Jul_11_1129,Reversal,3.2.4,60.057967916596276,
5,exp3.png,exp4.png,3,0,3,0,0,5,5,5,,,,,,,,,,,,,,,,,,,,,,,,,False,64,65,False,exp3.png,exp4.png,trial_left_image,1,exp3.png,1,exp3.png,exp4.png,1,1,non-reversed,correct,0.28691932403287435,1,valid_win,369.18819609982893,37,,,,,,,,,,,s_090,1,2022_Jul_11_1129,Reversal,3.2.4,60.057967916596276,
6,exp1.png,exp2.png,3,0,3,0,0,6,6,6,,,,,,,,,,,,,,,,,,,,,,,,,False,65,66,False,exp1.png,exp2.png,trial_left_image,1,exp1.png,1,exp1.png,exp2.png,1,3,reversed,correct,0.10315986844524838,0,invalid_lose,373.504381199833,37,,,,,,,,,,,s_090,1,2022_Jul_11_1129,Reversal,3.2.4,60.057967916596276,
7,exp3.png,exp4.png,3,0,3,0,0,7,7,7,,,,,,,,,,,,,,,,,,,,,,,,,False,66,67,True,exp4.png,exp3.png,trial_right_image,-1,exp3.png,1,exp3.png,exp4.png,1,1,non-reversed,correct,0.6973541577643383,1,valid_win,378.0187605000101,38,,,,,,,,,,,s_090,1,2022_Jul_11_1129,Reversal,3.2.4,60.057967916596276,
8,exp1.png,exp2.png,3,0,3,0,0,8,8,8,,,,,,,,,,,,,,,,,,,,,,,,,False,67,68,False,exp1.png,exp2.png,trial_left_image,1,exp1.png,1,exp1.png,exp2.png,1,3,reversed,correct,0.5824443807694561,1,valid_win,383.6833568001166,39,,,,,,,,,,,s_090,1,2022_Jul_11_1129,Reversal,3.2.4,60.057967916596276,
9,exp3.png,exp4.png,3,0,3,0,0,9,9,9,,,,,,,,,,,,,,,,,,,,,,,,,False,68,69,True,exp4.png,exp3.png,trial_right_image,-1,exp3.png,1,exp3.png,exp4.png,1,1,non-reversed,correct,0.8900230774820702,1,valid_win,388.0327083999291,40,,,,,,,,,,,s_090,1,2022_Jul_11_1129,Reversal,3.2.4,60.057967916596276,
10,exp1.png,exp2.png,3,0,3,0,0,10,10,10,,,,,,,,,,,,,,,,,,,,,,,,,False,69,70,True,exp2.png,exp1.png,trial_right_image,-1,exp1.png,1,exp1.png,exp2.png,1,3,reversed,correct,0.035310302962673124,0,invalid_lose,400.8607495999895,40,,,,,,,,,,,s_090,1,2022_Jul_11_1129,Reversal,3.2.4,60.057967916596276,
11,exp3.png,exp4.png,3,0,3,0,0,11,11,11,,,,,,,,,,,,,,,,,,,,,,,,,False,70,71,True,exp4.png,exp3.png,trial_right_image,-1,exp3.png,1,exp3.png,exp4.png,1,1,non-reversed,correct,0.2916249726256013,1,valid_win,405.3096974999644,41,,,,,,,,,,,s_090,1,2022_Jul_11_1129,Reversal,3.2.4,60.057967916596276,
12,exp1.png,exp2.png,3,0,3,0,0,12,12,12,,,,,,,,,,,,,,,,,,,,,,,,,False,71,72,False,exp1.png,exp2.png,trial_left_image,1,exp1.png,1,exp1.png,exp2.png,1,3,reversed,correct,0.21349162302756897,0,invalid_lose,409.7084149001166,41,,,,,,,,,,,s_090,1,2022_Jul_11_1129,Reversal,3.2.4,60.057967916596276,
13,exp3.png,exp4.png,3,0,3,0,0,13,13,13,,,,,,,,,,,,,,,,,,,,,,,,,False,72,73,False,exp3.png,exp4.png,trial_left_image,1,exp3.png,1,exp3.png,exp4.png,1,1,non-reversed,correct,0.987468390116003,1,valid_win,414.02400289988145,42,,,,,,,,,,,s_090,1,2022_Jul_11_1129,Reversal,3.2.4,60.057967916596276,
14,exp1.png,exp2.png,3,0,3,0,0,14,14,14,,,,,,,,,,,,,,,,,,,,,,,,,False,73,74,True,exp2.png,exp1.png,trial_right_image,-1,exp1.png,1,exp1.png,exp2.png,1,3,reversed,correct,0.021355361262072492,0,invalid_lose,418.30526540009305,42,,,,,,,,,,,s_090,1,2022_Jul_11_1129,Reversal,3.2.4,60.057967916596276,
15,exp3.png,exp4.png,3,0,3,0,0,15,15,15,,,,,,,,,,,,,,,,,,,,,,,,,False,74,75,False,exp3.png,exp4.png,trial_left_image,1,exp3.png,1,exp3.png,exp4.png,1,1,non-reversed,correct,0.7298827235463886,1,valid_win,422.437551099807,43,,,,,,,,,,,s_090,1,2022_Jul_11_1129,Reversal,3.2.4,60.057967916596276,
16,exp1.png,exp2.png,3,0,3,0,0,16,16,16,,,,,,,,,,,,,,,,,,,,,,,,,False,75,76,True,exp2.png,exp1.png,trial_right_image,-1,exp1.png,1,exp1.png,exp2.png,1,3,reversed,correct,0.8266684241943215,1,valid_win,426.73520120000467,44,,,,,,,,,,,s_090,1,2022_Jul_11_1129,Reversal,3.2.4,60.057967916596276,
17,exp3.png,exp4.png,3,0,3,0,0,17,17,17,,,,,,,,,,,,,,,,,,,,,,,,,False,76,77,True,exp4.png,exp3.png,trial_right_image,-1,exp3.png,1,exp3.png,exp4.png,1,1,non-reversed,correct,0.8325895901388782,1,valid_win,431.0173635999672,45,,,,,,,,,,,s_090,1,2022_Jul_11_1129,Reversal,3.2.4,60.057967916596276,
18,exp1.png,exp2.png,3,0,3,0,0,18,18,18,,,,,,,,,,,,,,,,,,,,,,,,,False,77,78,True,exp2.png,exp1.png,trial_right_image,-1,exp1.png,1,exp1.png,exp2.png,1,3,reversed,correct,0.9670835785617912,1,valid_win,435.4833213998936,46,,,,,,,,,,,s_090,1,2022_Jul_11_1129,Reversal,3.2.4,60.057967916596276,
19,exp3.png,exp4.png,3,0,3,0,0,19,19,19,,,,,,,,,,,,,,,,,,,,,,,,,False,78,79,False,exp3.png,exp4.png,trial_left_image,1,exp3.png,1,exp3.png,exp4.png,1,1,non-reversed,correct,0.8990675354883648,1,valid_win,439.7987047000788,47,,,,,,,,,,,s_090,1,2022_Jul_11_1129,Reversal,3.2.4,60.057967916596276,
20,exp1.png,exp2.png,3,0,3,0,0,20,20,20,,,,,,,,,,,,,,,,,,,,,,,,,False,79,80,True,exp2.png,exp1.png,trial_right_image,-1,exp1.png,1,exp1.png,exp2.png,1,3,reversed,correct,0.7016439596552434,1,valid_win,444.21368250017986,48,,,,,,,,,,,s_090,1,2022_Jul_11_1129,Reversal,3.2.4,60.057967916596276,
,,,3,0,3,0,,,,,0,0,0,0,,,,,,,,,,,,,,,,,,,,,,,,,,,,,,,,,,,,,,,,,,50.0,50.0,98,50.0,,,,,,,s_090,1,2022_Jul_11_1129,Reversal,3.2.4,60.057967916596276,
0,exp1.png,exp2.png,,,,,,,,,,,,,,,,,0,0,0,0,0,0,0,0,,,,,,,,,True,,,,,,,,,,,,,,,,,,,,,,,,,,,,,,,s_090,1,2022_Jul_11_1129,Reversal,3.2.4,60.057967916596276,
1,exp3.png,exp4.png,,,,,,,,,,,,,,,,,0,0,0,0,0,1,1,1,,,,,,,,,False,0,81,True,exp4.png,exp3.png,trial_right_image,-1,exp3.png,1,exp3.png,exp4.png,1,1,non-reversed,correct,0.18270676799679575,0,invalid_lose,457.3917371002026,48,,,,,455.2867753999308,,,,,,s_090,1,2022_Jul_11_1129,Reversal,3.2.4,60.057967916596276,
2,exp1.png,exp2.png,,,,,,,,,,,,,,,,,0,0,0,0,0,2,2,2,,,,,,,,,False,1,82,False,exp1.png,exp2.png,trial_right_image,-1,exp2.png,1,exp2.png,exp1.png,0,4,reversed,correct,0.16936249560588112,0,invalid_lose,466.6887182998471,48,,,,,,,,,,,s_090,1,2022_Jul_11_1129,Reversal,3.2.4,60.057967916596276,
3,exp3.png,exp4.png,,,,,,,,,,,,,,,,,0,0,0,0,0,3,3,3,,,,,,,,,False,2,83,False,exp3.png,exp4.png,trial_left_image,1,exp3.png,1,exp3.png,exp4.png,1,1,non-reversed,correct,0.4103045131701093,1,valid_win,471.4709979002364,49,,,,,,,,,,,s_090,1,2022_Jul_11_1129,Reversal,3.2.4,60.057967916596276,
4,exp1.png,exp2.png,,,,,,,,,,,,,,,,,0,0,0,0,0,4,4,4,,,,,,,,,False,3,84,False,exp1.png,exp2.png,trial_right_image,-1,exp2.png,1,exp2.png,exp1.png,0,4,reversed,correct,0.9032778856266233,1,valid_win,475.57003549998626,50,,,,,,,,,,,s_090,1,2022_Jul_11_1129,Reversal,3.2.4,60.057967916596276,
5,exp3.png,exp4.png,,,,,,,,,,,,,,,,,0,0,0,0,0,5,5,5,,,,,,,,,False,4,85,True,exp4.png,exp3.png,trial_right_image,-1,exp3.png,1,exp3.png,exp4.png,1,1,non-reversed,correct,0.36669490223388934,1,valid_win,479.8343834001571,51,,,,,,,,,,,s_090,1,2022_Jul_11_1129,Reversal,3.2.4,60.057967916596276,
6,exp1.png,exp2.png,,,,,,,,,,,,,,,,,0,0,0,0,0,6,6,6,,,,,,,,,False,5,86,True,exp2.png,exp1.png,trial_left_image,1,exp2.png,1,exp2.png,exp1.png,0,4,reversed,correct,0.7460813690053119,1,valid_win,484.0163417002186,52,,,,,,,,,,,s_090,1,2022_Jul_11_1129,Reversal,3.2.4,60.057967916596276,
7,exp3.png,exp4.png,,,,,,,,,,,,,,,,,0,0,0,0,0,7,7,7,,,,,,,,,False,6,87,True,exp4.png,exp3.png,trial_right_image,-1,exp3.png,1,exp3.png,exp4.png,1,1,non-reversed,correct,0.12230709303628329,0,invalid_lose,488.1988261998631,52,,,,,,,,,,,s_090,1,2022_Jul_11_1129,Reversal,3.2.4,60.057967916596276,
8,exp1.png,exp2.png,,,,,,,,,,,,,,,,,0,0,0,0,0,8,8,8,,,,,,,,,False,7,88,True,exp2.png,exp1.png,trial_left_image,1,exp2.png,1,exp2.png,exp1.png,0,4,reversed,correct,0.06157063255892625,0,invalid_lose,492.44658870017156,52,,,,,,,,,,,s_090,1,2022_Jul_11_1129,Reversal,3.2.4,60.057967916596276,
9,exp3.png,exp4.png,,,,,,,,,,,,,,,,,0,0,0,0,0,9,9,9,,,,,,,,,False,8,89,True,exp4.png,exp3.png,trial_right_image,-1,exp3.png,1,exp3.png,exp4.png,1,1,non-reversed,correct,0.7458484458635855,1,valid_win,496.4956876002252,53,,,,,,,,,,,s_090,1,2022_Jul_11_1129,Reversal,3.2.4,60.057967916596276,
10,exp1.png,exp2.png,,,,,,,,,,,,,,,,,0,0,0,0,0,10,10,10,,,,,,,,,False,9,90,False,exp1.png,exp2.png,trial_right_image,-1,exp2.png,1,exp2.png,exp1.png,0,4,reversed,correct,0.597514783193427,1,valid_win,500.6942854998633,54,,,,,,,,,,,s_090,1,2022_Jul_11_1129,Reversal,3.2.4,60.057967916596276,
11,exp3.png,exp4.png,,,,,,,,,,,,,,,,,0,0,0,0,0,11,11,11,,,,,,,,,False,10,91,False,exp3.png,exp4.png,trial_left_image,1,exp3.png,1,exp3.png,exp4.png,1,1,non-reversed,correct,0.2997974523430662,1,valid_win,504.8099552998319,55,,,,,,,,,,,s_090,1,2022_Jul_11_1129,Reversal,3.2.4,60.057967916596276,
12,exp1.png,exp2.png,,,,,,,,,,,,,,,,,0,0,0,0,0,12,12,12,,,,,,,,,False,11,92,False,exp1.png,exp2.png,trial_right_image,-1,exp2.png,1,exp2.png,exp1.png,0,4,reversed,correct,0.9211465346102242,1,valid_win,508.9080642000772,56,,,,,,,,,,,s_090,1,2022_Jul_11_1129,Reversal,3.2.4,60.057967916596276,
13,exp3.png,exp4.png,,,,,,,,,,,,,,,,,0,0,0,0,0,13,13,13,,,,,,,,,False,12,93,False,exp3.png,exp4.png,trial_left_image,1,exp3.png,1,exp3.png,exp4.png,1,1,non-reversed,correct,0.9712630161025787,1,valid_win,513.5562666999176,57,,,,,,,,,,,s_090,1,2022_Jul_11_1129,Reversal,3.2.4,60.057967916596276,
14,exp1.png,exp2.png,,,,,,,,,,,,,,,,,0,0,0,0,0,14,14,14,,,,,,,,,False,13,94,False,exp1.png,exp2.png,trial_right_image,-1,exp2.png,1,exp2.png,exp1.png,0,4,reversed,correct,0.3042167909699194,1,valid_win,517.4884835998528,58,,,,,,,,,,,s_090,1,2022_Jul_11_1129,Reversal,3.2.4,60.057967916596276,
15,exp3.png,exp4.png,,,,,,,,,,,,,,,,,0,0,0,0,0,15,15,15,,,,,,,,,False,14,95,True,exp4.png,exp3.png,trial_right_image,-1,exp3.png,1,exp3.png,exp4.png,1,1,non-reversed,correct,0.047602501335523684,0,invalid_lose,521.619820300024,58,,,,,,,,,,,s_090,1,2022_Jul_11_1129,Reversal,3.2.4,60.057967916596276,
16,exp1.png,exp2.png,,,,,,,,,,,,,,,,,0,0,0,0,0,16,16,16,,,,,,,,,False,15,96,True,exp2.png,exp1.png,trial_left_image,1,exp2.png,1,exp2.png,exp1.png,0,4,reversed,correct,0.47483880868998296,1,valid_win,526.1847554999404,59,,,,,,,,,,,s_090,1,2022_Jul_11_1129,Reversal,3.2.4,60.057967916596276,
17,exp3.png,exp4.png,,,,,,,,,,,,,,,,,0,0,0,0,0,17,17,17,,,,,,,,,False,16,97,True,exp4.png,exp3.png,trial_right_image,-1,exp3.png,1,exp3.png,exp4.png,1,1,non-reversed,correct,0.8652984165465931,1,valid_win,530.4508742000908,60,,,,,,,,,,,s_090,1,2022_Jul_11_1129,Reversal,3.2.4,60.057967916596276,
18,exp1.png,exp2.png,,,,,,,,,,,,,,,,,0,0,0,0,0,18,18,18,,,,,,,,,False,17,98,False,exp1.png,exp2.png,trial_left_image,1,exp1.png,1,exp2.png,exp1.png,1,3,reversed,incorrect,0.5586486665483886,0,valid_lose,534.6659964998253,60,,,,,,,,,,,s_090,1,2022_Jul_11_1129,Reversal,3.2.4,60.057967916596276,
19,exp3.png,exp4.png,,,,,,,,,,,,,,,,,0,0,0,0,0,19,19,19,,,,,,,,,False,18,99,False,exp3.png,exp4.png,trial_left_image,1,exp3.png,1,exp3.png,exp4.png,1,1,non-reversed,correct,0.046670578609794844,0,invalid_lose,538.7147889002226,60,,,,,,,,,,,s_090,1,2022_Jul_11_1129,Reversal,3.2.4,60.057967916596276,
20,exp1.png,exp2.png,,,,,,,,,,,,,,,,,0,0,0,0,0,20,20,20,,,,,,,,,False,19,100,True,exp2.png,exp1.png,trial_left_image,1,exp2.png,1,exp2.png,exp1.png,0,4,reversed,correct,0.39497853741801703,1,valid_win,543.3459997000173,61,,,,,,,,,,,s_090,1,2022_Jul_11_1129,Reversal,3.2.4,60.057967916596276,
,,,,,,,,,,,,,,,,,,,0,0,0,0,,,,,0,0,0,0,,,,,,,,,,,,,,,,,,,,,,,,,,50.0,66,69,50.0,,,,,,,s_090,1,2022_Jul_11_1129,Reversal,3.2.4,60.057967916596276,
0,exp1.png,exp2.png,,,,,,,,,,,,,,,,,1,0,1,0,0,0,0,0,,,,,,,,,True,,,,,,,,,,,,,,,,,,,,,,,,,,,,,,,s_090,1,2022_Jul_11_1129,Reversal,3.2.4,60.057967916596276,
1,exp3.png,exp4.png,,,,,,,,,,,,,,,,,1,0,1,0,0,1,1,1,,,,,,,,,False,20,101,False,exp3.png,exp4.png,trial_left_image,1,exp3.png,1,exp3.png,exp4.png,1,1,non-reversed,correct,0.595118937829332,1,valid_win,565.2225663000718,62,,,,,,,,,,,s_090,1,2022_Jul_11_1129,Reversal,3.2.4,60.057967916596276,
2,exp1.png,exp2.png,,,,,,,,,,,,,,,,,1,0,1,0,0,2,2,2,,,,,,,,,False,21,102,False,exp1.png,exp2.png,trial_left_image,1,exp1.png,1,exp2.png,exp1.png,1,3,reversed,incorrect,0.7430515529846384,0,valid_lose,571.0703977998346,62,,,,,,,,,,,s_090,1,2022_Jul_11_1129,Reversal,3.2.4,60.057967916596276,
3,exp3.png,exp4.png,,,,,,,,,,,,,,,,,1,0,1,0,0,3,3,3,,,,,,,,,False,22,103,False,exp3.png,exp4.png,trial_left_image,1,exp3.png,1,exp3.png,exp4.png,1,1,non-reversed,correct,0.6577614246559194,1,valid_win,575.0858587999828,63,,,,,,,,,,,s_090,1,2022_Jul_11_1129,Reversal,3.2.4,60.057967916596276,
4,exp1.png,exp2.png,,,,,,,,,,,,,,,,,1,0,1,0,0,4,4,4,,,,,,,,,False,23,104,False,exp1.png,exp2.png,trial_left_image,1,exp1.png,1,exp2.png,exp1.png,1,3,reversed,incorrect,0.0036891220159979143,1,invalid_win,578.9516027001664,64,,,,,,,,,,,s_090,1,2022_Jul_11_1129,Reversal,3.2.4,60.057967916596276,
5,exp3.png,exp4.png,,,,,,,,,,,,,,,,,1,0,1,0,0,5,5,5,,,,,,,,,False,24,105,False,exp3.png,exp4.png,trial_left_image,1,exp3.png,1,exp3.png,exp4.png,1,1,non-reversed,correct,0.38827891997840414,1,valid_win,583.4671038999222,65,,,,,,,,,,,s_090,1,2022_Jul_11_1129,Reversal,3.2.4,60.057967916596276,
6,exp1.png,exp2.png,,,,,,,,,,,,,,,,,1,0,1,0,0,6,6,6,,,,,,,,,False,25,106,True,exp2.png,exp1.png,trial_right_image,-1,exp1.png,1,exp2.png,exp1.png,1,3,reversed,incorrect,0.10043414470627043,1,invalid_win,587.9153897999786,66,,,,,,,,,,,s_090,1,2022_Jul_11_1129,Reversal,3.2.4,60.057967916596276,
7,exp3.png,exp4.png,,,,,,,,,,,,,,,,,1,0,1,0,0,7,7,7,,,,,,,,,False,26,107,True,exp4.png,exp3.png,trial_right_image,-1,exp3.png,1,exp3.png,exp4.png,1,1,non-reversed,correct,0.8445847273736067,1,valid_win,592.5968705001287,67,,,,,,,,,,,s_090,1,2022_Jul_11_1129,Reversal,3.2.4,60.057967916596276,
8,exp1.png,exp2.png,,,,,,,,,,,,,,,,,1,0,1,0,0,8,8,8,,,,,,,,,False,27,108,True,exp2.png,exp1.png,trial_right_image,-1,exp1.png,1,exp2.png,exp1.png,1,3,reversed,incorrect,0.9916204770643038,0,valid_lose,597.0117665999569,67,,,,,,,,,,,s_090,1,2022_Jul_11_1129,Reversal,3.2.4,60.057967916596276,
9,exp3.png,exp4.png,,,,,,,,,,,,,,,,,1,0,1,0,0,9,9,9,,,,,,,,,False,28,109,False,exp3.png,exp4.png,trial_left_image,1,exp3.png,1,exp3.png,exp4.png,1,1,non-reversed,correct,0.975042345514172,1,valid_win,601.1770806000568,68,,,,,,,,,,,s_090,1,2022_Jul_11_1129,Reversal,3.2.4,60.057967916596276,
10,exp1.png,exp2.png,,,,,,,,,,,,,,,,,1,0,1,0,0,10,10,10,,,,,,,,,False,29,110,False,exp1.png,exp2.png,trial_left_image,1,exp1.png,1,exp2.png,exp1.png,1,3,reversed,incorrect,0.3787266655595345,0,valid_lose,605.4085889998823,68,,,,,,,,,,,s_090,1,2022_Jul_11_1129,Reversal,3.2.4,60.057967916596276,
11,exp3.png,exp4.png,,,,,,,,,,,,,,,,,1,0,1,0,0,11,11,11,,,,,,,,,False,30,111,True,exp4.png,exp3.png,trial_right_image,-1,exp3.png,1,exp3.png,exp4.png,1,1,non-reversed,correct,0.796561123158074,1,valid_win,609.5749050998129,69,,,,,,,,,,,s_090,1,2022_Jul_11_1129,Reversal,3.2.4,60.057967916596276,
12,exp1.png,exp2.png,,,,,,,,,,,,,,,,,1,0,1,0,0,12,12,12,,,,,,,,,False,31,112,False,exp1.png,exp2.png,trial_left_image,1,exp1.png,1,exp2.png,exp1.png,1,3,reversed,incorrect,0.8016165985485215,0,valid_lose,614.1222510999069,69,,,,,,,,,,,s_090,1,2022_Jul_11_1129,Reversal,3.2.4,60.057967916596276,
13,exp3.png,exp4.png,,,,,,,,,,,,,,,,,1,0,1,0,0,13,13,13,,,,,,,,,False,32,113,True,exp4.png,exp3.png,trial_left_image,1,exp4.png,1,exp3.png,exp4.png,0,2,non-reversed,incorrect,0.11784660074361297,1,invalid_win,618.2720866999589,70,,,,,,,,,,,s_090,1,2022_Jul_11_1129,Reversal,3.2.4,60.057967916596276,
14,exp1.png,exp2.png,,,,,,,,,,,,,,,,,1,0,1,0,0,14,14,14,,,,,,,,,False,33,114,True,exp2.png,exp1.png,trial_left_image,1,exp2.png,1,exp2.png,exp1.png,0,4,reversed,correct,0.6535902303918684,1,valid_win,622.4039846002124,71,,,,,,,,,,,s_090,1,2022_Jul_11_1129,Reversal,3.2.4,60.057967916596276,
15,exp3.png,exp4.png,,,,,,,,,,,,,,,,,1,0,1,0,0,15,15,15,,,,,,,,,False,34,115,True,exp4.png,exp3.png,trial_left_image,1,exp4.png,1,exp3.png,exp4.png,0,2,non-reversed,incorrect,0.8851950192980786,0,valid_lose,626.9686683998443,71,,,,,,,,,,,s_090,1,2022_Jul_11_1129,Reversal,3.2.4,60.057967916596276,
16,exp1.png,exp2.png,,,,,,,,,,,,,,,,,1,0,1,0,0,16,16,16,,,,,,,,,False,35,116,True,exp2.png,exp1.png,trial_left_image,1,exp2.png,1,exp2.png,exp1.png,0,4,reversed,correct,0.13605924977153627,0,invalid_lose,630.9836069000885,71,,,,,,,,,,,s_090,1,2022_Jul_11_1129,Reversal,3.2.4,60.057967916596276,
17,exp3.png,exp4.png,,,,,,,,,,,,,,,,,1,0,1,0,0,17,17,17,,,,,,,,,False,36,117,False,exp3.png,exp4.png,trial_right_image,-1,exp4.png,1,exp3.png,exp4.png,0,2,non-reversed,incorrect,0.8524812365940069,0,valid_lose,635.3325473000295,71,,,,,,,,,,,s_090,1,2022_Jul_11_1129,Reversal,3.2.4,60.057967916596276,
18,exp1.png,exp2.png,,,,,,,,,,,,,,,,,1,0,1,0,0,18,18,18,,,,,,,,,False,37,118,False,exp1.png,exp2.png,trial_right_image,-1,exp2.png,1,exp2.png,exp1.png,0,4,reversed,correct,0.6242949680733053,1,valid_win,639.4984753001481,72,,,,,,,,,,,s_090,1,2022_Jul_11_1129,Reversal,3.2.4,60.057967916596276,
19,exp3.png,exp4.png,,,,,,,,,,,,,,,,,1,0,1,0,0,19,19,19,,,,,,,,,False,38,119,True,exp4.png,exp3.png,trial_left_image,1,exp4.png,1,exp3.png,exp4.png,0,2,non-reversed,incorrect,0.2976480809287707,0,valid_lose,643.5132237002254,72,,,,,,,,,,,s_090,1,2022_Jul_11_1129,Reversal,3.2.4,60.057967916596276,
20,exp1.png,exp2.png,,,,,,,,,,,,,,,,,1,0,1,0,0,20,20,20,,,,,,,,,False,39,120,True,exp2.png,exp1.png,trial_left_image,1,exp2.png,1,exp2.png,exp1.png,0,4,reversed,correct,0.6862416723476931,1,valid_win,647.7444285000674,73,,,,,,,,,,,s_090,1,2022_Jul_11_1129,Reversal,3.2.4,60.057967916596276,
,,,,,,,,,,,,,,,,,,,1,0,1,0,,,,,0,0,0,0,,,,,,,,,,,,,,,,,,,,,,,,,,100,100,100,100,,,,,,,s_090,1,2022_Jul_11_1129,Reversal,3.2.4,60.057967916596276,
0,exp1.png,exp2.png,,,,,,,,,,,,,,,,,2,0,2,0,0,0,0,0,,,,,,,,,True,,,,,,,,,,,,,,,,,,,,,,,,,,,,,,,s_090,1,2022_Jul_11_1129,Reversal,3.2.4,60.057967916596276,
1,exp3.png,exp4.png,,,,,,,,,,,,,,,,,2,0,2,0,0,1,1,1,,,,,,,,,False,40,121,False,exp3.png,exp4.png,trial_left_image,1,exp3.png,1,exp3.png,exp4.png,1,1,non-reversed,correct,0.6396653318349037,1,valid_win,661.3400070001371,74,,,,,,,,,,,s_090,1,2022_Jul_11_1129,Reversal,3.2.4,60.057967916596276,
2,exp1.png,exp2.png,,,,,,,,,,,,,,,,,2,0,2,0,0,2,2,2,,,,,,,,,False,41,122,True,exp2.png,exp1.png,trial_left_image,1,exp2.png,1,exp2.png,exp1.png,0,4,reversed,correct,0.9125652022295845,1,valid_win,665.438793499954,75,,,,,,,,,,,s_090,1,2022_Jul_11_1129,Reversal,3.2.4,60.057967916596276,
3,exp3.png,exp4.png,,,,,,,,,,,,,,,,,2,0,2,0,0,3,3,3,,,,,,,,,False,42,123,True,exp4.png,exp3.png,trial_left_image,1,exp4.png,1,exp3.png,exp4.png,0,2,non-reversed,incorrect,0.01817180177406008,1,invalid_win,669.7044611000456,76,,,,,,,,,,,s_090,1,2022_Jul_11_1129,Reversal,3.2.4,60.057967916596276,
4,exp1.png,exp2.png,,,,,,,,,,,,,,,,,2,0,2,0,0,4,4,4,,,,,,,,,False,43,124,False,exp1.png,exp2.png,trial_right_image,-1,exp2.png,1,exp2.png,exp1.png,0,4,reversed,correct,0.010977682176906534,0,invalid_lose,674.4020095998421,76,,,,,,,,,,,s_090,1,2022_Jul_11_1129,Reversal,3.2.4,60.057967916596276,
5,exp3.png,exp4.png,,,,,,,,,,,,,,,,,2,0,2,0,0,5,5,5,,,,,,,,,False,44,125,True,exp4.png,exp3.png,trial_right_image,-1,exp3.png,1,exp3.png,exp4.png,1,1,non-reversed,correct,0.7695967753196453,1,valid_win,678.5013770000078,77,,,,,,,,,,,s_090,1,2022_Jul_11_1129,Reversal,3.2.4,60.057967916596276,
6,exp1.png,exp2.png,,,,,,,,,,,,,,,,,2,0,2,0,0,6,6,6,,,,,,,,,False,45,126,False,exp1.png,exp2.png,trial_left_image,1,exp1.png,1,exp2.png,exp1.png,1,3,reversed,incorrect,0.8827785386755856,0,valid_lose,682.3663981999271,77,,,,,,,,,,,s_090,1,2022_Jul_11_1129,Reversal,3.2.4,60.057967916596276,
7,exp3.png,exp4.png,,,,,,,,,,,,,,,,,2,0,2,0,0,7,7,7,,,,,,,,,False,46,127,True,exp4.png,exp3.png,trial_left_image,1,exp4.png,1,exp3.png,exp4.png,0,2,non-reversed,incorrect,0.15608535507880483,1,invalid_win,686.6486881999299,78,,,,,,,,,,,s_090,1,2022_Jul_11_1129,Reversal,3.2.4,60.057967916596276,
8,exp1.png,exp2.png,,,,,,,,,,,,,,,,,2,0,2,0,0,8,8,8,,,,,,,,,False,47,128,True,exp2.png,exp1.png,trial_right_image,-1,exp1.png,1,exp2.png,exp1.png,1,3,reversed,incorrect,0.7684922824606066,0,valid_lose,690.4980068998411,78,,,,,,,,,,,s_090,1,2022_Jul_11_1129,Reversal,3.2.4,60.057967916596276,
9,exp3.png,exp4.png,,,,,,,,,,,,,,,,,2,0,2,0,0,9,9,9,,,,,,,,,False,48,129,True,exp4.png,exp3.png,trial_right_image,-1,exp3.png,1,exp3.png,exp4.png,1,1,non-reversed,correct,0.09622936035655572,0,invalid_lose,694.4451819998212,78,,,,,,,,,,,s_090,1,2022_Jul_11_1129,Reversal,3.2.4,60.057967916596276,
10,exp1.png,exp2.png,,,,,,,,,,,,,,,,,2,0,2,0,0,10,10,10,,,,,,,,,False,49,130,False,exp1.png,exp2.png,trial_left_image,1,exp1.png,1,exp2.png,exp1.png,1,3,reversed,incorrect,0.6101038706301131,0,valid_lose,698.361139500048,78,,,,,,,,,,,s_090,1,2022_Jul_11_1129,Reversal,3.2.4,60.057967916596276,
11,exp3.png,exp4.png,,,,,,,,,,,,,,,,,2,0,2,0,0,11,11,11,,,,,,,,,False,50,131,True,exp4.png,exp3.png,trial_right_image,-1,exp3.png,1,exp3.png,exp4.png,1,1,non-reversed,correct,0.3916804737285454,1,valid_win,702.209664999973,79,,,,,,,,,,,s_090,1,2022_Jul_11_1129,Reversal,3.2.4,60.057967916596276,
12,exp1.png,exp2.png,,,,,,,,,,,,,,,,,2,0,2,0,0,12,12,12,,,,,,,,,False,51,132,False,exp1.png,exp2.png,trial_left_image,1,exp1.png,1,exp2.png,exp1.png,1,3,reversed,incorrect,0.382362162482779,0,valid_lose,706.0592155000195,79,,,,,,,,,,,s_090,1,2022_Jul_11_1129,Reversal,3.2.4,60.057967916596276,
13,exp3.png,exp4.png,,,,,,,,,,,,,,,,,2,0,2,0,0,13,13,13,,,,,,,,,False,52,133,False,exp3.png,exp4.png,trial_left_image,1,exp3.png,1,exp3.png,exp4.png,1,1,non-reversed,correct,0.6853091324999301,1,valid_win,710.4233157997951,80,,,,,,,,,,,s_090,1,2022_Jul_11_1129,Reversal,3.2.4,60.057967916596276,
14,exp1.png,exp2.png,,,,,,,,,,,,,,,,,2,0,2,0,0,14,14,14,,,,,,,,,False,53,134,True,exp2.png,exp1.png,trial_left_image,1,exp2.png,1,exp2.png,exp1.png,0,4,reversed,correct,0.3262788734333867,1,valid_win,714.6228729002178,81,,,,,,,,,,,s_090,1,2022_Jul_11_1129,Reversal,3.2.4,60.057967916596276,
15,exp3.png,exp4.png,,,,,,,,,,,,,,,,,2,0,2,0,0,15,15,15,,,,,,,,,False,54,135,True,exp4.png,exp3.png,trial_left_image,1,exp4.png,1,exp3.png,exp4.png,0,2,non-reversed,incorrect,0.22162528313738095,1,invalid_win,718.3870735000819,82,,,,,,,,,,,s_090,1,2022_Jul_11_1129,Reversal,3.2.4,60.057967916596276,
16,exp1.png,exp2.png,,,,,,,,,,,,,,,,,2,0,2,0,0,16,16,16,,,,,,,,,False,55,136,False,exp1.png,exp2.png,trial_left_image,1,exp1.png,1,exp2.png,exp1.png,1,3,reversed,incorrect,0.11801300218441946,1,invalid_win,722.4526104000397,83,,,,,,,,,,,s_090,1,2022_Jul_11_1129,Reversal,3.2.4,60.057967916596276,
17,exp3.png,exp4.png,,,,,,,,,,,,,,,,,2,0,2,0,0,17,17,17,,,,,,,,,False,56,137,False,exp3.png,exp4.png,trial_left_image,1,exp3.png,1,exp3.png,exp4.png,1,1,non-reversed,correct,0.7751936419873195,1,valid_win,726.3357824999839,84,,,,,,,,,,,s_090,1,2022_Jul_11_1129,Reversal,3.2.4,60.057967916596276,
18,exp1.png,exp2.png,,,,,,,,,,,,,,,,,2,0,2,0,0,18,18,18,,,,,,,,,False,57,138,False,exp1.png,exp2.png,trial_left_image,1,exp1.png,1,exp2.png,exp1.png,1,3,reversed,incorrect,0.4503618095026777,0,valid_lose,730.0675592999905,84,,,,,,,,,,,s_090,1,2022_Jul_11_1129,Reversal,3.2.4,60.057967916596276,
19,exp3.png,exp4.png,,,,,,,,,,,,,,,,,2,0,2,0,0,19,19,19,,,,,,,,,False,58,139,False,exp3.png,exp4.png,trial_left_image,1,exp3.png,1,exp3.png,exp4.png,1,1,non-reversed,correct,0.7826134693814046,1,valid_win,734.0165793998167,85,,,,,,,,,,,s_090,1,2022_Jul_11_1129,Reversal,3.2.4,60.057967916596276,
20,exp1.png,exp2.png,,,,,,,,,,,,,,,,,2,0,2,0,0,20,20,20,,,,,,,,,False,59,140,True,exp2.png,exp1.png,trial_left_image,1,exp2.png,1,exp2.png,exp1.png,0,4,reversed,correct,0.7641457098986095,1,valid_win,737.9316281001084,86,,,,,,,,,,,s_090,1,2022_Jul_11_1129,Reversal,3.2.4,60.057967916596276,
,,,,,,,,,,,,,,,,,,,2,0,2,0,,,,,0,0,0,0,,,,,,,,,,,,,,,,,,,,,,,,,,74,75,76,76,,,,,,,s_090,1,2022_Jul_11_1129,Reversal,3.2.4,60.057967916596276,
,,,,,,,,,,,,,,,,,,,,,,,,,,,,,,,,,,,,,,,,,,,,,,,,,,,,,,,86,,,,,,101,61,40,297.20548140024766,1,,,,,,,
